probe,sectag,relatedu,firstnum,dis1num,dis2num,bignum,oddeven,dislist,trials_4.thisRepN,trials_4.thisTrialN,trials_4.thisN,trials_4.thisIndex,trials.thisRepN,trials.thisTrialN,trials.thisN,trials.thisIndex,trials_2.thisRepN,trials_2.thisTrialN,trials_2.thisN,trials_2.thisIndex,trials_3.thisRepN,trials_3.thisTrialN,trials_3.thisN,trials_3.thisIndex,thisRow.t,notes,ins.started,text.started,ins.stopped,cue.started,cuesti.started,cueblank.started,cuesti.stopped,cue.stopped,dis1.started,text_3.started,dis1.stopped,firsTar.started,text_5.started,firsTar.stopped,probe.started,text_FLK1.started,text_4.started,text_FLK1.stopped,text_FLK2.started,text_4.stopped,probe.stopped,AskColor.started,text_6.started,text_6.stopped,text_7.started,key_resp.started,text_8.started,text_7.stopped,key_resp.stopped,text_8.stopped,AskColor.stopped,key_resp.keys,key_resp.corr,AskRelated.started,text_2.started,text_11.started,key_resp_2.started,text_2.stopped,text_11.stopped,text_10.started,key_resp_2.stopped,AskRelated.stopped,key_resp_2.keys,key_resp_2.corr,T1_stimulus,T2_stimulus,T1_response,T2_response,T1_accuracy,T2_accuracy,T1_RT,T2_RT,distractors,ISI,stimulus_duration,trial_number,trial_type,oddeven,relatedu,text_5.stopped,text_FLK2.stopped,text_10.stopped,cueblank.stopped,text_3.stopped,participant,session,date,expName,psychopyVersion,frameRate,expStart,
,,,,,,,,,,,,,,,,,,,,,,,,,,,0.013735400047153234,0.04013060010038316,1.0100218000588939,,,,,,,,,,,,,,,,,,,,,,,,,,,,,,,,,,,,,,,,,,,,,,,,,,,,,,,,,,,,,,643771,001,2024-12-21_08h58.58.821,AB,2024.1.5,None,2024-12-21 08h59.16.600436 +0800,
猫咪,小猫, f,0:06,0.0,0:12,三三,f,望具,0,0,0,3,,,,,0,0,0,4,,,,,3.824739500065334,,,,,1.0558415000559762,1.0726905000628904,2.0097588000353426,2.0740243000909686,3.017636900069192,3.7994331000372767,3.5306155000580475,3.806184900109656,3.538671200047247,3.663033700082451,3.697082000086084,,,,,,,,,,,,,,,,,,,,,,,,,,,,,,,,,,,,,,,,,,,,f, f,,,,,,643771,001,2024-12-21_08h58.58.821,AB,2024.1.5,None,2024-12-21 08h59.16.600436 +0800,
猫咪,小猫, f,0:06,0.0,0:12,三三,f,剃气,0,0,0,3,,,,,0,1,1,0,,,,,3.824739500065334,,,,,,,,,,3.8070499000605196,3.824739500065334,3.851052900077775,,,,,,,,,,,,,,,,,,,,,,,,,,,,,,,,,,,,,,,,,,,,,,,f, f,,,,,,643771,001,2024-12-21_08h58.58.821,AB,2024.1.5,None,2024-12-21 08h59.16.600436 +0800,
猫咪,小猫, f,0:06,0.0,0:12,三三,f,笨糖,0,0,0,3,,,,,0,2,2,2,,,,,3.875347000081092,,,,,,,,,,3.852556199999526,3.875347000081092,3.9309008000418544,,,,,,,,,,,,,,,,,,,,,,,,,,,,,,,,,,,,,,,,,,,,,,,f, f,,,,,,643771,001,2024-12-21_08h58.58.821,AB,2024.1.5,None,2024-12-21 08h59.16.600436 +0800,
猫咪,小猫, f,0:06,0.0,0:12,三三,f,作浆,0,0,0,3,,,,,0,3,3,3,,,,,3.95711640000809,,,,,,,,,,3.9314604001119733,3.95711640000809,4.030208700103685,,,,,,,,,,,,,,,,,,,,,,,,,,,,,,,,,,,,,,,,,,,,,,,f, f,,,,,,643771,001,2024-12-21_08h58.58.821,AB,2024.1.5,None,2024-12-21 08h59.16.600436 +0800,
猫咪,小猫, f,0:06,0.0,0:12,三三,f,学黏,0,0,0,3,,,,,0,4,4,1,,,,,4.0574875000165775,,,,,,,,,,4.030718000023626,4.0574875000165775,4.0987513000145555,,,,,,,,,,,,,,,,,,,,,,,,,,,,,,,,,,,,,,,,,,,,,,,f, f,,,,,,643771,001,2024-12-21_08h58.58.821,AB,2024.1.5,None,2024-12-21 08h59.16.600436 +0800,
猫咪,小猫, f,0:06,0.0,0:12,三三,f,剃气,0,0,0,3,,,,,,,,,0,0,0,0,4.390845000045374,,,,,,,,,,4.370231300010346,4.390845000045374,4.431283600046299,,,,4.098908900050446,4.125377700082026,4.2086989000672475,4.225714800064452,4.274648300022818,4.291797700105235,4.347831200109795,,,,,,,,,,,,,,,,,,,,,,,,,,,,,,,,,,,,,f, f,,,,,,643771,001,2024-12-21_08h58.58.821,AB,2024.1.5,None,2024-12-21 08h59.16.600436 +0800,
猫咪,小猫, f,0:06,0.0,0:12,三三,f,作浆,0,0,0,3,,,,,,,,,0,1,1,3,4.457910900004208,,,,,,,,,,4.431878000032157,4.457910900004208,4.513128700084053,,,,,,,,,,,,,,,,,,,,,,,,,,,,,,,,,,,,,,,,,,,,,,,f, f,,,,,,643771,001,2024-12-21_08h58.58.821,AB,2024.1.5,None,2024-12-21 08h59.16.600436 +0800,
猫咪,小猫, f,0:06,0.0,0:12,三三,f,望具,0,0,0,3,,,,,,,,,0,2,2,4,4.539825100102462,,,,,,,,,,4.513632000074722,4.539825100102462,4.596048500039615,,,,,,,,,,,,,,,,,,,,,,,,,,,,,,,,,,,,,,,,,,,,,,,f, f,,,,,,643771,001,2024-12-21_08h58.58.821,AB,2024.1.5,None,2024-12-21 08h59.16.600436 +0800,
猫咪,小猫, f,0:06,0.0,0:12,三三,f,笨糖,0,0,0,3,,,,,,,,,0,3,3,2,4.60706230008509,,,,,,,,,,4.59650180011522,4.60706230008509,4.678910400019959,,,,,,,,,,,,,,,,,,,,,,,,,,,,,,,,,,,,,,,,,,,,,,,f, f,,,,,,643771,001,2024-12-21_08h58.58.821,AB,2024.1.5,None,2024-12-21 08h59.16.600436 +0800,
猫咪,小猫, f,0:06,0.0,0:12,三三,f,学黏,0,0,0,3,,,,,,,,,0,4,4,1,4.6911434000357985,,,,,,,,,,4.679263500031084,4.6911434000357985,4.765325400047004,,,,,,,,,,,,,,,,,,,,,,,,,,,,,,,,,,,,,,,,,,,,,,,f, f,,,,,,643771,001,2024-12-21_08h58.58.821,AB,2024.1.5,None,2024-12-21 08h59.16.600436 +0800,
窗帘,帘幔, f,0:09,0.0,0:03,七七,j,剃气,0,1,1,2,,,,,0,0,0,0,,,,,15.709249300067313,,,,,12.76162490004208,12.774141000001691,13.759996900102124,13.772802200051956,14.762176600052044,15.696758100064471,15.709249300067313,15.780163000104949,15.514776300056837,15.608958200085908,15.681199600105174,,,,,,,,4.7654319000430405,4.774132500053383,5.773359200102277,5.773359200102277,5.773359200102277,7.772776100086048,7.790070400107652,7.790070400107652,8.773221200099215,8.758358600083739,None,0,8.759985900018364,8.773221200099215,9.761712900013663,9.761712900013663,9.791302400059067,11.774437200045213,11.774437200045213,11.774437200045213,12.760949500021525,None,0,猫咪,小猫,None,None,0,0,[],[],学黏,0.083,0.083,0,AB,j, f,15.709249300067313,,,,,643771,001,2024-12-21_08h58.58.821,AB,2024.1.5,None,2024-12-21 08h59.16.600436 +0800,
窗帘,帘幔, f,0:09,0.0,0:03,七七,j,望具,0,1,1,2,,,,,0,1,1,4,,,,,15.790621300111525,,,,,,,,,,15.780530100106262,15.790621300111525,15.863052200060338,,,,,,,,,,,,,,,,,,,,,,,,,,,,,,,,,,,,,,,,,,,,,,,j, f,,,,,,643771,001,2024-12-21_08h58.58.821,AB,2024.1.5,None,2024-12-21 08h59.16.600436 +0800,
窗帘,帘幔, f,0:09,0.0,0:03,七七,j,学黏,0,1,1,2,,,,,0,2,2,1,,,,,15.873426100006327,,,,,,,,,,15.86341650004033,15.873426100006327,15.94557020009961,,,,,,,,,,,,,,,,,,,,,,,,,,,,,,,,,,,,,,,,,,,,,,,j, f,,,,,,643771,001,2024-12-21_08h58.58.821,AB,2024.1.5,None,2024-12-21 08h59.16.600436 +0800,
窗帘,帘幔, f,0:09,0.0,0:03,七七,j,作浆,0,1,1,2,,,,,0,3,3,3,,,,,15.957541800104082,,,,,,,,,,15.945920500089414,15.957541800104082,16.02949930005707,,,,,,,,,,,,,,,,,,,,,,,,,,,,,,,,,,,,,,,,,,,,,,,j, f,,,,,,643771,001,2024-12-21_08h58.58.821,AB,2024.1.5,None,2024-12-21 08h59.16.600436 +0800,
窗帘,帘幔, f,0:09,0.0,0:03,七七,j,笨糖,0,1,1,2,,,,,0,4,4,2,,,,,16.057603700086474,,,,,,,,,,16.02984660002403,16.057603700086474,16.112530200043693,,,,,,,,,,,,,,,,,,,,,,,,,,,,,,,,,,,,,,,,,,,,,,,j, f,,,,,,643771,001,2024-12-21_08h58.58.821,AB,2024.1.5,None,2024-12-21 08h59.16.600436 +0800,
窗帘,帘幔, f,0:09,0.0,0:03,七七,j,笨糖,0,1,1,2,,,,,,,,,0,0,0,2,16.37340140005108,,,,,,,,,,16.35453780007083,16.37340140005108,16.44287620007526,,,,16.11264810001012,16.14033070008736,16.18994680000469,16.226759100100026,16.272922500036657,16.272922500036657,16.341901000007056,,,,,,,,,,,,,,,,,,,,,,,,,,,,,,,,,,,,,j, f,,16.37340140005108,,,,643771,001,2024-12-21_08h58.58.821,AB,2024.1.5,None,2024-12-21 08h59.16.600436 +0800,
窗帘,帘幔, f,0:09,0.0,0:03,七七,j,学黏,0,1,1,2,,,,,,,,,0,1,1,1,16.45566630002577,,,,,,,,,,16.443182000075467,16.45566630002577,16.526129800011404,,,,,,,,,,,,,,,,,,,,,,,,,,,,,,,,,,,,,,,,,,,,,,,j, f,,,,,,643771,001,2024-12-21_08h58.58.821,AB,2024.1.5,None,2024-12-21 08h59.16.600436 +0800,
窗帘,帘幔, f,0:09,0.0,0:03,七七,j,望具,0,1,1,2,,,,,,,,,0,2,2,4,16.543324100086465,,,,,,,,,,16.52643780002836,16.543324100086465,16.60759890009649,,,,,,,,,,,,,,,,,,,,,,,,,,,,,,,,,,,,,,,,,,,,,,,j, f,,,,,,643771,001,2024-12-21_08h58.58.821,AB,2024.1.5,None,2024-12-21 08h59.16.600436 +0800,
窗帘,帘幔, f,0:09,0.0,0:03,七七,j,作浆,0,1,1,2,,,,,,,,,0,3,3,3,16.622248700005002,,,,,,,,,,16.607795200077817,16.622248700005002,16.699334700009786,,,,,,,,,,,,,,,,,,,,,,,,,,,,,,,,,,,,,,,,,,,,,,,j, f,,,,,,643771,001,2024-12-21_08h58.58.821,AB,2024.1.5,None,2024-12-21 08h59.16.600436 +0800,
窗帘,帘幔, f,0:09,0.0,0:03,七七,j,剃气,0,1,1,2,,,,,,,,,0,4,4,0,16.72285580006428,,,,,,,,,,16.699631900060922,16.72285580006428,16.7787960000569,,,,,,,,,,,,,,,,,,,,,,,,,,,,,,,,,,,,,,,,,,,,,,,j, f,,,,,,643771,001,2024-12-21_08h58.58.821,AB,2024.1.5,None,2024-12-21 08h59.16.600436 +0800,
手部,脚部, f,0:09,0:06,0:07,六六,j,笨糖,0,2,2,0,,,,,0,0,0,2,,,,,27.72255110007245,,,,,24.759384800097905,24.77342680003494,25.773596600047313,25.773596600047313,26.761800600099377,27.70677130005788,27.72255110007245,27.79091800004244,27.524394000065513,27.62315070000477,27.693962400080636,,,,,,,,16.778905000071973,16.789681300055236,17.79061550006736,17.77357230009511,17.77357230009511,19.773414400056936,19.773414400056936,19.773414400056936,20.77392280008644,20.758513800101355,None,0,20.758700800011866,20.77392280008644,21.772657900000922,21.772657900000922,21.78907620010432,23.77240180002991,23.77240180002991,23.77240180002991,24.75889970001299,None,0,窗帘,帘幔,None,None,0,0,[],[],剃气,0.083,0.083,1,AB,j, f,27.72255110007245,,24.77342680003494,26.788921700092033,,643771,001,2024-12-21_08h58.58.821,AB,2024.1.5,None,2024-12-21 08h59.16.600436 +0800,
手部,脚部, f,0:09,0:06,0:07,六六,j,剃气,0,2,2,0,,,,,0,1,1,0,,,,,27.806559700053185,,,,,,,,,,27.791122600086965,27.806559700053185,27.88207270007115,,,,,,,,,,,,,,,,,,,,,,,,,,,,,,,,,,,,,,,,,,,,,,,j, f,,,,,,643771,001,2024-12-21_08h58.58.821,AB,2024.1.5,None,2024-12-21 08h59.16.600436 +0800,
手部,脚部, f,0:09,0:06,0:07,六六,j,学黏,0,2,2,0,,,,,0,2,2,1,,,,,27.904937500017695,,,,,,,,,,27.8823693000013,27.904937500017695,27.96747100003995,,,,,,,,,,,,,,,,,,,,,,,,,,,,,,,,,,,,,,,,,,,,,,,j, f,,,,,,643771,001,2024-12-21_08h58.58.821,AB,2024.1.5,None,2024-12-21 08h59.16.600436 +0800,
手部,脚部, f,0:09,0:06,0:07,六六,j,望具,0,2,2,0,,,,,0,3,3,4,,,,,27.989041300024837,,,,,,,,,,27.967806700035,27.989041300024837,28.050124300061725,,,,,,,,,,,,,,,,,,,,,,,,,,,,,,,,,,,,,,,,,,,,,,,j, f,,,,,,643771,001,2024-12-21_08h58.58.821,AB,2024.1.5,None,2024-12-21 08h59.16.600436 +0800,
手部,脚部, f,0:09,0:06,0:07,六六,j,作浆,0,2,2,0,,,,,0,4,4,3,,,,,28.07323980005458,,,,,,,,,,28.050508300075307,28.07323980005458,28.126551200053655,,,,,,,,,,,,,,,,,,,,,,,,,,,,,,,,,,,,,,,,,,,,,,,j, f,,,,,,643771,001,2024-12-21_08h58.58.821,AB,2024.1.5,None,2024-12-21 08h59.16.600436 +0800,
手部,脚部, f,0:09,0:06,0:07,六六,j,学黏,0,2,2,0,,,,,,,,,0,0,0,1,28.388170000049286,,,,,,,,,,28.382226000074297,28.388170000049286,28.458393800072372,,,,28.12666120007634,28.139348400058225,28.20546180009842,28.222200900083408,28.292826600023545,28.292826600023545,28.374909900012426,,,,,,,,,,,,,,,,,,,,,,,,,,,,,,,,,,,,,j, f,,,,,,643771,001,2024-12-21_08h58.58.821,AB,2024.1.5,None,2024-12-21 08h59.16.600436 +0800,
手部,脚部, f,0:09,0:06,0:07,六六,j,作浆,0,2,2,0,,,,,,,,,0,1,1,3,28.471957600093447,,,,,,,,,,28.45860860007815,28.471957600093447,28.529813900007866,,,,,,,,,,,,,,,,,,,,,,,,,,,,,,,,,,,,,,,,,,,,,,,j, f,,,,,,643771,001,2024-12-21_08h58.58.821,AB,2024.1.5,None,2024-12-21 08h59.16.600436 +0800,
手部,脚部, f,0:09,0:06,0:07,六六,j,笨糖,0,2,2,0,,,,,,,,,0,2,2,2,28.53851010010112,,,,,,,,,,28.530119100003503,28.53851010010112,28.613387800054625,,,,,,,,,,,,,,,,,,,,,,,,,,,,,,,,,,,,,,,,,,,,,,,j, f,,,,,28.62173450004775,643771,001,2024-12-21_08h58.58.821,AB,2024.1.5,None,2024-12-21 08h59.16.600436 +0800,
手部,脚部, f,0:09,0:06,0:07,六六,j,剃气,0,2,2,0,,,,,,,,,0,3,3,0,28.62173450004775,,,,,,,,,,28.613739400054328,28.62173450004775,28.699703000020236,,,,,,,,,,,,,,,,,,,,,,,,,,,,,,,,,,,,,,,,,,,,,,,j, f,,,,,28.722092500072904,643771,001,2024-12-21_08h58.58.821,AB,2024.1.5,None,2024-12-21 08h59.16.600436 +0800,
手部,脚部, f,0:09,0:06,0:07,六六,j,望具,0,2,2,0,,,,,,,,,0,4,4,4,28.722092500072904,,,,,,,,,,28.700038200011477,28.722092500072904,28.792802900075912,,,,,,,,,,,,,,,,,,,,,,,,,,,,,,,,,,,,,,,,,,,,,,,j, f,,,,,,643771,001,2024-12-21_08h58.58.821,AB,2024.1.5,None,2024-12-21 08h59.16.600436 +0800,
商店,店铺, f,0:06,0:06,0:12,四四,j,笨糖,0,3,3,1,,,,,0,0,0,2,,,,,39.48994750005659,,,,,36.780900200014,36.8055483000353,37.78910480008926,37.80523320008069,38.77483910007868,39.47852710005827,39.48994750005659,39.54519050009549,39.3063149000518,39.38960760005284,39.46212480007671,,,,,,,,28.792873700032942,28.807342000072822,29.82179050007835,29.788749000057578,29.788749000057578,31.78906390001066,31.78906390001066,31.78906390001066,32.79064880008809,32.7752701001009,None,0,32.775466600083746,32.79064880008809,33.78857890004292,33.78857890004292,33.805603000102565,35.7928345000837,35.7928345000837,35.7928345000837,36.78016170009505,None,0,手部,脚部,None,None,0,0,[],[],望具,0.083,0.083,2,AB,j, f,,,,38.78762360010296,38.87209930003155,643771,001,2024-12-21_08h58.58.821,AB,2024.1.5,None,2024-12-21 08h59.16.600436 +0800,
商店,店铺, f,0:06,0:06,0:12,四四,j,望具,0,3,3,1,,,,,0,1,1,4,,,,,39.573214400094,,,,,,,,,,39.54556470003445,39.573214400094,39.62691920006182,,,,,,,,,,,,,,,,,,,,,,,,,,,,,,,,,,,,,,,,,,,,,,,j, f,,,,,,643771,001,2024-12-21_08h58.58.821,AB,2024.1.5,None,2024-12-21 08h59.16.600436 +0800,
商店,店铺, f,0:06,0:06,0:12,四四,j,剃气,0,3,3,1,,,,,0,2,2,0,,,,,39.65555920009501,,,,,,,,,,39.62725830008276,39.65555920009501,39.709580500028096,,,,,,,,,,,,,,,,,,,,,,,,,,,,,,,,,,,,,,,,,,,,,,,j, f,,,,,,643771,001,2024-12-21_08h58.58.821,AB,2024.1.5,None,2024-12-21 08h59.16.600436 +0800,
商店,店铺, f,0:06,0:06,0:12,四四,j,学黏,0,3,3,1,,,,,0,3,3,1,,,,,39.723623100086115,,,,,,,,,,39.71003940002993,39.723623100086115,39.79369220009539,,,,,,,,,,,,,,,,,,,,,,,,,,,,,,,,,,,,,,,,,,,,,,,j, f,,,,,39.80576180003118,643771,001,2024-12-21_08h58.58.821,AB,2024.1.5,None,2024-12-21 08h59.16.600436 +0800,
商店,店铺, f,0:06,0:06,0:12,四四,j,作浆,0,3,3,1,,,,,0,4,4,3,,,,,39.80576180003118,,,,,,,,,,39.79403490002733,39.80576180003118,39.879178400035016,,,,,,,,,,,,,,,,,,,,,,,,,,,,,,,,,,,,,,,,,,,,,,,j, f,,,,,,643771,001,2024-12-21_08h58.58.821,AB,2024.1.5,None,2024-12-21 08h59.16.600436 +0800,
商店,店铺, f,0:06,0:06,0:12,四四,j,作浆,0,3,3,1,,,,,,,,,0,0,0,3,40.15586560009979,,,,,,,,,,40.14211830007844,40.15586560009979,40.20982590003405,,,,39.87925340002403,39.888808500021696,39.97266690002289,39.97266690002289,40.0559082000982,40.0559082000982,40.127266800031066,,,,,,,,,,,,,,,,,,,,,,,,,,,,,,,,,,,,,j, f,,,,,,643771,001,2024-12-21_08h58.58.821,AB,2024.1.5,None,2024-12-21 08h59.16.600436 +0800,
商店,店铺, f,0:06,0:06,0:12,四四,j,望具,0,3,3,1,,,,,,,,,0,1,1,4,40.221852800110355,,,,,,,,,,40.21016240003519,40.221852800110355,40.29150000005029,,,,,,,,,,,,,,,,,,,,,,,,,,,,,,,,,,,,,,,,,,,,,,,j, f,,,,,,643771,001,2024-12-21_08h58.58.821,AB,2024.1.5,None,2024-12-21 08h59.16.600436 +0800,
商店,店铺, f,0:06,0:06,0:12,四四,j,笨糖,0,3,3,1,,,,,,,,,0,2,2,2,40.30391610006336,,,,,,,,,,40.29183160001412,40.30391610006336,40.37615130003542,,,,,,,,,,,,,,,,,,,,,,,,,,,,,,,,,,,,,,,,,,,,,,,j, f,,,,,,643771,001,2024-12-21_08h58.58.821,AB,2024.1.5,None,2024-12-21 08h59.16.600436 +0800,
商店,店铺, f,0:06,0:06,0:12,四四,j,学黏,0,3,3,1,,,,,,,,,0,3,3,1,40.38802710000891,,,,,,,,,,40.37653680006042,40.38802710000891,40.46001280006021,,,,,,,,,,,,,,,,,,,,,,,,,,,,,,,,,,,,,,,,,,,,,,,j, f,,,,,,643771,001,2024-12-21_08h58.58.821,AB,2024.1.5,None,2024-12-21 08h59.16.600436 +0800,
商店,店铺, f,0:06,0:06,0:12,四四,j,剃气,0,3,3,1,,,,,,,,,0,4,4,0,40.47190100001171,,,,,,,,,,40.46041200007312,40.47190100001171,40.54357560002245,,,,,,,,,,,,,,,,,,,,,,,,,,,,,,,,,,,,,,,,,,,,,,,j, f,,,,,,643771,001,2024-12-21_08h58.58.821,AB,2024.1.5,None,2024-12-21 08h59.16.600436 +0800,
思考,沉思, f,0:06,0:02,0:12,二二,j,剃气,0,4,4,4,,,,,0,0,0,0,,,,,51.2380580001045,,,,,48.524855000083335,48.53808140009642,49.538656100048684,49.538656100048684,50.52440810005646,51.22273760009557,51.2380580001045,51.314342400059104,51.040861700079404,51.138409100007266,51.209435300086625,,,,,,,,40.54370880010538,40.55494020006154,41.55535510007758,41.53821860009339,41.53821860009339,43.5399559000507,43.5399559000507,43.5399559000507,44.557098200079054,44.53161450009793,None,0,44.5321069000056,44.557098200079054,45.5399761000881,45.5399761000881,45.55588080000598,47.55550670006778,47.538963700062595,47.55550670006778,48.52455600001849,None,0,商店,店铺,None,None,0,0,[],[],剃气,0.083,0.083,3,AB,j, f,51.2380580001045,,48.53808140009642,50.554437300073914,,643771,001,2024-12-21_08h58.58.821,AB,2024.1.5,None,2024-12-21 08h59.16.600436 +0800,
思考,沉思, f,0:06,0:02,0:12,二二,j,作浆,0,4,4,4,,,,,0,1,1,3,,,,,51.33775110007264,,,,,,,,,,51.31466310005635,51.33775110007264,51.390395300113596,,,,,,,,,,,,,,,,,,,,,,,,,,,,,,,,,,,,,,,,,,,,,,,j, f,,,,,,643771,001,2024-12-21_08h58.58.821,AB,2024.1.5,None,2024-12-21 08h59.16.600436 +0800,
思考,沉思, f,0:06,0:02,0:12,二二,j,笨糖,0,4,4,4,,,,,0,2,2,2,,,,,51.40432250010781,,,,,,,,,,51.39059210009873,51.40432250010781,51.47599390009418,,,,,,,,,,,,,,,,,,,,,,,,,,,,,,,,,,,,,,,,,,,,,,,j, f,,,,,,643771,001,2024-12-21_08h58.58.821,AB,2024.1.5,None,2024-12-21 08h59.16.600436 +0800,
思考,沉思, f,0:06,0:02,0:12,二二,j,望具,0,4,4,4,,,,,0,3,3,4,,,,,51.48820940009318,,,,,,,,,,51.476321700029075,51.48820940009318,51.56018990010489,,,,,,,,,,,,,,,,,,,,,,,,,,,,,,,,,,,,,,,,,,,,,,,j, f,,,,,,643771,001,2024-12-21_08h58.58.821,AB,2024.1.5,None,2024-12-21 08h59.16.600436 +0800,
思考,沉思, f,0:06,0:02,0:12,二二,j,学黏,0,4,4,4,,,,,0,4,4,1,,,,,51.57262900006026,,,,,,,,,,51.560566700063646,51.57262900006026,51.642746600089595,,,,,,,,,,,,,,,,,,,,,,,,,,,,,,,,,,,,,,,,,,,,,,,j, f,,,,,,643771,001,2024-12-21_08h58.58.821,AB,2024.1.5,None,2024-12-21 08h59.16.600436 +0800,
思考,沉思, f,0:06,0:02,0:12,二二,j,学黏,0,4,4,4,,,,,,,,,0,0,0,1,51.90491220005788,,,,,,,,,,51.88934670004528,51.90491220005788,51.973375700064935,,,,51.64285150007345,51.6758400000399,51.72236640006304,51.771848700009286,51.80548920005094,51.80548920005094,51.87463880004361,,,,,,,,,,,,,,,,,,,,,,,,,,,,,,,,,,,,,j, f,,51.90491220005788,,,,643771,001,2024-12-21_08h58.58.821,AB,2024.1.5,None,2024-12-21 08h59.16.600436 +0800,
思考,沉思, f,0:06,0:02,0:12,二二,j,作浆,0,4,4,4,,,,,,,,,0,1,1,3,51.98767860000953,,,,,,,,,,51.97358200000599,51.98767860000953,52.05664970004,,,,,,,,,,,,,,,,,,,,,,,,,,,,,,,,,,,,,,,,,,,,,,,j, f,,,,,,643771,001,2024-12-21_08h58.58.821,AB,2024.1.5,None,2024-12-21 08h59.16.600436 +0800,
思考,沉思, f,0:06,0:02,0:12,二二,j,望具,0,4,4,4,,,,,,,,,0,2,2,4,52.07187320000958,,,,,,,,,,52.056860900018364,52.07187320000958,52.142420800053515,,,,,,,,,,,,,,,,,,,,,,,,,,,,,,,,,,,,,,,,,,,,,,,j, f,,,,,,643771,001,2024-12-21_08h58.58.821,AB,2024.1.5,None,2024-12-21 08h59.16.600436 +0800,
思考,沉思, f,0:06,0:02,0:12,二二,j,剃气,0,4,4,4,,,,,,,,,0,3,3,0,52.15575340006035,,,,,,,,,,52.142787100048736,52.15575340006035,52.22632250003517,,,,,,,,,,,,,,,,,,,,,,,,,,,,,,,,,,,,,,,,,,,,,,,j, f,,,,,,643771,001,2024-12-21_08h58.58.821,AB,2024.1.5,None,2024-12-21 08h59.16.600436 +0800,
思考,沉思, f,0:06,0:02,0:12,二二,j,笨糖,0,4,4,4,,,,,,,,,0,4,4,2,52.237861400004476,,,,,,,,,,52.22666900011245,52.237861400004476,52.305702900048345,,,,,,,,,,,,,,,,,,,,,,,,,,,,,,,,,,,,,,,,,,,,,,,j, f,,,,,,643771,001,2024-12-21_08h58.58.821,AB,2024.1.5,None,2024-12-21 08h59.16.600436 +0800,
,, f,,,,,j,,,,,,,,,,,,,,,,,,,,,,,,,,,,,,,,,,,,,,,,,52.30577840004116,52.32103680004366,53.32208740001079,53.309865400078706,53.309865400078706,55.30554720002692,55.320808900054544,55.320808900054544,56.30956490000244,56.29256810003426,None,0,56.29285510000773,56.30956490000244,57.30465330008883,57.30465330008883,57.30465330008883,59.305111000081524,59.305111000081524,59.305111000081524,60.290804400108755,None,0,思考,沉思,None,None,0,0,[],[],笨糖,0.083,0.083,4,AB,j, f,,,60.30375000007916,,,,,,,,,,
