probe,sectag,relatedu,firstnum,dis1num,dis2num,bignum,oddeven,dislist,trials_4.thisRepN,trials_4.thisTrialN,trials_4.thisN,trials_4.thisIndex,trials.thisRepN,trials.thisTrialN,trials.thisN,trials.thisIndex,trials_2.thisRepN,trials_2.thisTrialN,trials_2.thisN,trials_2.thisIndex,trials_3.thisRepN,trials_3.thisTrialN,trials_3.thisN,trials_3.thisIndex,thisRow.t,notes,ins.started,text.started,ins.stopped,cue.started,cuesti.started,cueblank.started,cuesti.stopped,cueblank.stopped,cue.stopped,dis1.started,text_3.started,text_3.stopped,dis1.stopped,firsTar.started,text_5.started,firsTar.stopped,probe.started,text_FLK1.started,text_4.started,text_FLK1.stopped,text_4.stopped,text_FLK2.started,text_FLK2.stopped,probe.stopped,AskColor.started,text_6.started,text_6.stopped,text_7.started,key_resp.started,text_7.stopped,text_8.started,key_resp.stopped,text_8.stopped,AskColor.stopped,key_resp.keys,key_resp.corr,AskRelated.started,text_2.started,text_2.stopped,text_11.started,key_resp_2.started,text_11.stopped,text_10.started,key_resp_2.stopped,text_10.stopped,AskRelated.stopped,key_resp_2.keys,key_resp_2.corr,T1_stimulus,T2_stimulus,T1_response,T2_response,T1_accuracy,T2_accuracy,T1_RT,T2_RT,distractors,ISI,stimulus_duration,trial_number,trial_type,oddeven,relatedu,text_5.stopped,participant,session,date,expName,psychopyVersion,frameRate,expStart,
,,,,,,,,,,,,,,,,,,,,,,,,,,,0.014728200039826334,0.02954500005580485,1.0169170000590384,,,,,,,,,,,,,,,,,,,,,,,,,,,,,,,,,,,,,,,,,,,,,,,,,,,,,,,,,,,,,,727138,001,2024-12-19_19h08.17.689,AB,2024.1.5,None,2024-12-19 19h08.28.268156 +0800,
书桌,抽屉, j,0:09,0.0,0:06,八八,f,巴糖,0,0,0,215,,,,,0,0,0,2,,,,,3.945971900015138,,,,,1.0532123000593856,1.0787196999881417,2.0127215000102296,2.079744299990125,3.0126622000243515,2.997731300070882,3.935370000079274,3.945971900015138,3.6791707000229508,4.013984900084324,3.747405600035563,3.8630633000284433,3.9306906000711024,,,,,,,,,,,,,,,,,,,,,,,,,,,,,,,,,,,,,,,,,,,,,,f, j,,727138,001,2024-12-19_19h08.17.689,AB,2024.1.5,None,2024-12-19 19h08.28.268156 +0800,
书桌,抽屉, j,0:09,0.0,0:06,八八,f,小借,0,0,0,215,,,,,0,1,1,3,,,,,4.029458499979228,,,,,,,,,,,4.014140599989332,4.029458499979228,,4.097649100003764,,,,,,,,,,,,,,,,,,,,,,,,,,,,,,,,,,,,,,,,,,,,,,,,,f, j,,727138,001,2024-12-19_19h08.17.689,AB,2024.1.5,None,2024-12-19 19h08.28.268156 +0800,
书桌,抽屉, j,0:09,0.0,0:06,八八,f,行第,0,0,0,215,,,,,0,2,2,0,,,,,4.112744000041857,,,,,,,,,,,4.097816199995577,4.112744000041857,,4.180509899975732,,,,,,,,,,,,,,,,,,,,,,,,,,,,,,,,,,,,,,,,,,,,,,,,,f, j,,727138,001,2024-12-19_19h08.17.689,AB,2024.1.5,None,2024-12-19 19h08.28.268156 +0800,
书桌,抽屉, j,0:09,0.0,0:06,八八,f,员尾,0,0,0,215,,,,,0,3,3,1,,,,,4.196321900002658,,,,,,,,,,,4.180668100016192,4.196321900002658,,4.26412110007368,,,,,,,,,,,,,,,,,,,,,,,,,,,,,,,,,,,,,,,,,,,,,,,,,f, j,,727138,001,2024-12-19_19h08.17.689,AB,2024.1.5,None,2024-12-19 19h08.28.268156 +0800,
书桌,抽屉, j,0:09,0.0,0:06,八八,f,出亡,0,0,0,215,,,,,0,4,4,4,,,,,4.279553800006397,,,,,,,,,,,4.264276499976404,4.279553800006397,,4.347222400014289,,,,,,,,,,,,,,,,,,,,,,,,,,,,,,,,,,,,,,,,,,,,,,,,,f, j,,727138,001,2024-12-19_19h08.17.689,AB,2024.1.5,None,2024-12-19 19h08.28.268156 +0800,
书桌,抽屉, j,0:09,0.0,0:06,八八,f,巴糖,0,0,0,215,,,,,,,,,0,0,0,2,4.596046700025909,,,,,,,,,,,4.585838400060311,4.596046700025909,4.6793814999982715,4.664230499998666,,,,4.347274400060996,4.3625712000066414,4.429439799976535,4.44617000001017,4.512723800027743,4.512723800027743,4.596046700025909,4.5811998000135645,,,,,,,,,,,,,,,,,,,,,,,,,,,,,,,,,,,,,,f, j,,727138,001,2024-12-19_19h08.17.689,AB,2024.1.5,None,2024-12-19 19h08.28.268156 +0800,
书桌,抽屉, j,0:09,0.0,0:06,八八,f,行第,0,0,0,215,,,,,,,,,0,1,1,0,4.6793814999982715,,,,,,,,,,,4.664393600076437,4.6793814999982715,4.762884000083432,4.747988700051792,,,,,,,,,,,,,,,,,,,,,,,,,,,,,,,,,,,,,,,,,,,,,,,,,f, j,,727138,001,2024-12-19_19h08.17.689,AB,2024.1.5,None,2024-12-19 19h08.28.268156 +0800,
书桌,抽屉, j,0:09,0.0,0:06,八八,f,出亡,0,0,0,215,,,,,,,,,0,2,2,4,4.762884000083432,,,,,,,,,,,4.748161300085485,4.762884000083432,4.8462378000840545,4.830903600086458,,,,,,,,,,,,,,,,,,,,,,,,,,,,,,,,,,,,,,,,,,,,,,,,,f, j,,727138,001,2024-12-19_19h08.17.689,AB,2024.1.5,None,2024-12-19 19h08.28.268156 +0800,
书桌,抽屉, j,0:09,0.0,0:06,八八,f,员尾,0,0,0,215,,,,,,,,,0,3,3,1,4.8462378000840545,,,,,,,,,,,4.83106920006685,4.8462378000840545,4.929345200071111,4.91421660000924,,,,,,,,,,,,,,,,,,,,,,,,,,,,,,,,,,,,,,,,,,,,,,,,,f, j,,727138,001,2024-12-19_19h08.17.689,AB,2024.1.5,None,2024-12-19 19h08.28.268156 +0800,
书桌,抽屉, j,0:09,0.0,0:06,八八,f,小借,0,0,0,215,,,,,,,,,0,4,4,3,4.929345200071111,,,,,,,,,,,4.91437620006036,4.929345200071111,5.0127217000117525,4.997620100039057,,,,,,,,,,,,,,,,,,,,,,,,,,,,,,,,,,,,,,,,,,,,,,,,,f, j,,727138,001,2024-12-19_19h08.17.689,AB,2024.1.5,None,2024-12-19 19h08.28.268156 +0800,
迅速,缓慢, j,0:06,0.0,0:07,八八,j,巴糖,0,1,1,349,,,,,0,0,0,2,,,,,15.69556610006839,,,,,12.997708500013687,13.012163900071755,14.012341300025582,14.012341300025582,15.012010000064038,14.997115900041535,15.685785199981183,15.69556610006839,15.778932300047018,15.763870100025088,15.497318100067787,15.612263699993491,15.68106940004509,,,,,,,,,4.9976767000043765,5.0127217000117525,6.0129370000213385,6.0129370000213385,6.0129370000213385,8.012664700043388,8.012664700043388,8.012664700043388,9.012950900010765,8.99867510003969,None,0,9.000560200074688,9.012950900010765,10.012618600041606,10.012618600041606,10.012618600041606,12.012628700002097,12.012628700002097,12.012628700002097,13.012163900071755,12.997311000013724,None,0,书桌,抽屉,None,None,0,0,[],[],小借,0.083,0.083,0,AB,j, j,15.69556610006839,727138,001,2024-12-19_19h08.17.689,AB,2024.1.5,None,2024-12-19 19h08.28.268156 +0800,
迅速,缓慢, j,0:06,0.0,0:07,八八,j,行第,0,1,1,349,,,,,0,1,1,0,,,,,15.778932300047018,,,,,,,,,,,15.764037400018424,15.778932300047018,15.862678700010292,15.847142199985683,,,,,,,,,,,,,,,,,,,,,,,,,,,,,,,,,,,,,,,,,,,,,,,,,j, j,,727138,001,2024-12-19_19h08.17.689,AB,2024.1.5,None,2024-12-19 19h08.28.268156 +0800,
迅速,缓慢, j,0:06,0.0,0:07,八八,j,小借,0,1,1,349,,,,,0,2,2,3,,,,,15.862678700010292,,,,,,,,,,,15.84730889997445,15.862678700010292,15.945620300015435,15.930614200071432,,,,,,,,,,,,,,,,,,,,,,,,,,,,,,,,,,,,,,,,,,,,,,,,,j, j,,727138,001,2024-12-19_19h08.17.689,AB,2024.1.5,None,2024-12-19 19h08.28.268156 +0800,
迅速,缓慢, j,0:06,0.0,0:07,八八,j,出亡,0,1,1,349,,,,,0,3,3,4,,,,,15.945620300015435,,,,,,,,,,,15.930781900067814,15.945620300015435,16.028958200011402,16.013929400010966,,,,,,,,,,,,,,,,,,,,,,,,,,,,,,,,,,,,,,,,,,,,,,,,,j, j,,727138,001,2024-12-19_19h08.17.689,AB,2024.1.5,None,2024-12-19 19h08.28.268156 +0800,
迅速,缓慢, j,0:06,0.0,0:07,八八,j,员尾,0,1,1,349,,,,,0,4,4,1,,,,,16.028958200011402,,,,,,,,,,,16.014092799974605,16.028958200011402,16.11179400002584,16.097067199996673,,,,,,,,,,,,,,,,,,,,,,,,,,,,,,,,,,,,,,,,,,,,,,,,,j, j,,727138,001,2024-12-19_19h08.17.689,AB,2024.1.5,None,2024-12-19 19h08.28.268156 +0800,
迅速,缓慢, j,0:06,0.0,0:07,八八,j,巴糖,0,1,1,349,,,,,,,,,0,0,0,2,16.361926299985498,,,,,,,,,,,16.352535900077783,16.361926299985498,16.446020900039002,16.43145909998566,,,,16.097120200050995,16.11179400002584,16.19559160002973,16.19559160002973,16.279092599987052,16.279092599987052,16.361926299985498,16.34690360003151,,,,,,,,,,,,,,,,,,,,,,,,,,,,,,,,,,,,,,j, j,,727138,001,2024-12-19_19h08.17.689,AB,2024.1.5,None,2024-12-19 19h08.28.268156 +0800,
迅速,缓慢, j,0:06,0.0,0:07,八八,j,出亡,0,1,1,349,,,,,,,,,0,1,1,4,16.446020900039002,,,,,,,,,,,16.431666500051506,16.446020900039002,16.528785499976948,16.513846200075932,,,,,,,,,,,,,,,,,,,,,,,,,,,,,,,,,,,,,,,,,,,,,,,,,j, j,,727138,001,2024-12-19_19h08.17.689,AB,2024.1.5,None,2024-12-19 19h08.28.268156 +0800,
迅速,缓慢, j,0:06,0.0,0:07,八八,j,行第,0,1,1,349,,,,,,,,,0,2,2,0,16.528785499976948,,,,,,,,,,,16.51402630005032,16.528785499976948,16.612521399976686,16.597411300055683,,,,,,,,,,,,,,,,,,,,,,,,,,,,,,,,,,,,,,,,,,,,,,,,,j, j,,727138,001,2024-12-19_19h08.17.689,AB,2024.1.5,None,2024-12-19 19h08.28.268156 +0800,
迅速,缓慢, j,0:06,0.0,0:07,八八,j,员尾,0,1,1,349,,,,,,,,,0,3,3,1,16.612521399976686,,,,,,,,,,,16.597585799987428,16.612521399976686,16.695283100008965,16.680875900085084,,,,,,,,,,,,,,,,,,,,,,,,,,,,,,,,,,,,,,,,,,,,,,,,,j, j,,727138,001,2024-12-19_19h08.17.689,AB,2024.1.5,None,2024-12-19 19h08.28.268156 +0800,
迅速,缓慢, j,0:06,0.0,0:07,八八,j,小借,0,1,1,349,,,,,,,,,0,4,4,3,16.695283100008965,,,,,,,,,,,16.681039500050247,16.695283100008965,16.778625300037675,16.76406970003154,,,,,,,,,,,,,,,,,,,,,,,,,,,,,,,,,,,,,,,,,,,,,,,,,j, j,,727138,001,2024-12-19_19h08.17.689,AB,2024.1.5,None,2024-12-19 19h08.28.268156 +0800,
生病,患病, f,0:06,0:02,0:09,十十,j,出亡,0,2,2,85,,,,,0,0,0,4,,,,,27.461885299999267,,,,,24.76387450005859,24.778709799982607,25.77853300003335,25.77853300003335,26.77817820000928,26.76327490003314,27.452118100016378,27.461885299999267,27.544980700011365,27.52967900002841,27.263566500041634,27.378154700039886,27.44673980004154,,,,,,,,,16.764131400035694,16.778625300037675,17.778848099987954,17.778848099987954,17.778848099987954,19.77844820008613,19.77844820008613,19.77844820008613,20.778600600082427,20.763640000019222,None,0,20.763776800013147,20.778600600082427,21.778613400063477,21.778613400063477,21.778613400063477,23.778761800029315,23.778761800029315,23.778761800029315,24.778709799982607,24.76360469998326,None,0,迅速,缓慢,None,None,0,0,[],[],小借,0.083,0.083,1,AB,j, f,27.461885299999267,727138,001,2024-12-19_19h08.17.689,AB,2024.1.5,None,2024-12-19 19h08.28.268156 +0800,
生病,患病, f,0:06,0:02,0:09,十十,j,员尾,0,2,2,85,,,,,0,1,1,1,,,,,27.544980700011365,,,,,,,,,,,27.529855799977668,27.544980700011365,27.62888740003109,27.613612100016326,,,,,,,,,,,,,,,,,,,,,,,,,,,,,,,,,,,,,,,,,,,,,,,,,j, f,,727138,001,2024-12-19_19h08.17.689,AB,2024.1.5,None,2024-12-19 19h08.28.268156 +0800,
生病,患病, f,0:06,0:02,0:09,十十,j,巴糖,0,2,2,85,,,,,0,2,2,2,,,,,27.62888740003109,,,,,,,,,,,27.613777999999,27.62888740003109,27.712425100035034,27.697186000063084,,,,,,,,,,,,,,,,,,,,,,,,,,,,,,,,,,,,,,,,,,,,,,,,,j, f,,727138,001,2024-12-19_19h08.17.689,AB,2024.1.5,None,2024-12-19 19h08.28.268156 +0800,
生病,患病, f,0:06,0:02,0:09,十十,j,小借,0,2,2,85,,,,,0,3,3,3,,,,,27.712425100035034,,,,,,,,,,,27.69736200000625,27.712425100035034,27.7949589000782,27.780271399999037,,,,,,,,,,,,,,,,,,,,,,,,,,,,,,,,,,,,,,,,,,,,,,,,,j, f,,727138,001,2024-12-19_19h08.17.689,AB,2024.1.5,None,2024-12-19 19h08.28.268156 +0800,
生病,患病, f,0:06,0:02,0:09,十十,j,行第,0,2,2,85,,,,,0,4,4,0,,,,,27.7949589000782,,,,,,,,,,,27.78045399999246,27.7949589000782,27.878010499989614,27.86385970003903,,,,,,,,,,,,,,,,,,,,,,,,,,,,,,,,,,,,,,,,,,,,,,,,,j, f,,727138,001,2024-12-19_19h08.17.689,AB,2024.1.5,None,2024-12-19 19h08.28.268156 +0800,
生病,患病, f,0:06,0:02,0:09,十十,j,员尾,0,2,2,85,,,,,,,,,0,0,0,1,28.128406399977393,,,,,,,,,,,28.118601500056684,28.128406399977393,28.21210720005911,28.197326500085182,,,,27.863921800046228,27.878010499989614,27.9620552000124,27.9620552000124,28.044689300004393,28.044689300004393,28.128406399977393,28.113252200069837,,,,,,,,,,,,,,,,,,,,,,,,,,,,,,,,,,,,,,j, f,,727138,001,2024-12-19_19h08.17.689,AB,2024.1.5,None,2024-12-19 19h08.28.268156 +0800,
生病,患病, f,0:06,0:02,0:09,十十,j,出亡,0,2,2,85,,,,,,,,,0,1,1,4,28.21210720005911,,,,,,,,,,,28.197512399987318,28.21210720005911,28.29470189998392,28.279911800054833,,,,,,,,,,,,,,,,,,,,,,,,,,,,,,,,,,,,,,,,,,,,,,,,,j, f,,727138,001,2024-12-19_19h08.17.689,AB,2024.1.5,None,2024-12-19 19h08.28.268156 +0800,
生病,患病, f,0:06,0:02,0:09,十十,j,小借,0,2,2,85,,,,,,,,,0,2,2,3,28.29470189998392,,,,,,,,,,,28.280088300001808,28.29470189998392,,28.36338070000056,,,,,,,,,,,,,,,,,,,,,,,,,,,,,,,,,,,,,,,,,,,,,,,,,j, f,,727138,001,2024-12-19_19h08.17.689,AB,2024.1.5,None,2024-12-19 19h08.28.268156 +0800,
生病,患病, f,0:06,0:02,0:09,十十,j,巴糖,0,2,2,85,,,,,,,,,0,3,3,2,28.37859830004163,,,,,,,,,,,28.363560499972664,28.37859830004163,,28.446600300027058,,,,,,,,,,,,,,,,,,,,,,,,,,,,,,,,,,,,,,,,,,,,,,,,,j, f,,727138,001,2024-12-19_19h08.17.689,AB,2024.1.5,None,2024-12-19 19h08.28.268156 +0800,
生病,患病, f,0:06,0:02,0:09,十十,j,行第,0,2,2,85,,,,,,,,,0,4,4,0,28.46156319999136,,,,,,,,,,,28.446803600061685,28.46156319999136,,28.529873199993744,,,,,,,,,,,,,,,,,,,,,,,,,,,,,,,,,,,,,,,,,,,,,,,,,j, f,,727138,001,2024-12-19_19h08.17.689,AB,2024.1.5,None,2024-12-19 19h08.28.268156 +0800,
皱眉,微笑, j,0:09,0:06,0:10,六六,j,行第,0,3,3,279,,,,,0,0,0,0,,,,,39.46026980003808,,,,,36.530243500019424,36.54324200004339,37.54370340006426,37.54370340006426,,38.5294974000426,39.452994100051,39.46026980003808,39.54329320008401,39.528782100067474,39.27787750004791,39.376939599984325,39.44564300007187,,,,,,,,,28.529938300023787,28.54544670006726,29.578255900065415,29.578255900065415,29.578255900065415,31.577949100057594,31.529269400052726,31.577949100057594,,32.52951620006934,None,0,32.5296824000543,32.54463810008019,33.54513350001071,33.53062970004976,33.53062970004976,35.54426460003015,35.54426460003015,35.54426460003015,36.54324200004339,36.52951510006096,None,0,生病,患病,None,None,0,0,[],[],行第,0.083,0.083,2,AB,j, j,39.46026980003808,727138,001,2024-12-19_19h08.17.689,AB,2024.1.5,None,2024-12-19 19h08.28.268156 +0800,
皱眉,微笑, j,0:09,0:06,0:10,六六,j,巴糖,0,3,3,279,,,,,0,1,1,2,,,,,39.54329320008401,,,,,,,,,,,39.529073500074446,39.54329320008401,39.626949200057425,39.61227060004603,,,,,,,,,,,,,,,,,,,,,,,,,,,,,,,,,,,,,,,,,,,,,,,,,j, j,,727138,001,2024-12-19_19h08.17.689,AB,2024.1.5,None,2024-12-19 19h08.28.268156 +0800,
皱眉,微笑, j,0:09,0:06,0:10,六六,j,员尾,0,3,3,279,,,,,0,2,2,1,,,,,39.626949200057425,,,,,,,,,,,39.61244090006221,39.626949200057425,39.710920199984685,39.696728000068106,,,,,,,,,,,,,,,,,,,,,,,,,,,,,,,,,,,,,,,,,,,,,,,,,j, j,,727138,001,2024-12-19_19h08.17.689,AB,2024.1.5,None,2024-12-19 19h08.28.268156 +0800,
皱眉,微笑, j,0:09,0:06,0:10,六六,j,出亡,0,3,3,279,,,,,0,3,3,4,,,,,39.710920199984685,,,,,,,,,,,39.69704570004251,39.710920199984685,39.795369300059974,39.779028900084086,,,,,,,,,,,,,,,,,,,,,,,,,,,,,,,,,,,,,,,,,,,,,,,,,j, j,,727138,001,2024-12-19_19h08.17.689,AB,2024.1.5,None,2024-12-19 19h08.28.268156 +0800,
皱眉,微笑, j,0:09,0:06,0:10,六六,j,小借,0,3,3,279,,,,,0,4,4,3,,,,,39.795369300059974,,,,,,,,,,,39.77921469998546,39.795369300059974,39.876628300058655,39.86329910007771,,,,,,,,,,,,,,,,,,,,,,,,,,,,,,,,,,,,,,,,,,,,,,,,,j, j,,727138,001,2024-12-19_19h08.17.689,AB,2024.1.5,None,2024-12-19 19h08.28.268156 +0800,
皱眉,微笑, j,0:09,0:06,0:10,六六,j,出亡,0,3,3,279,,,,,,,,,0,0,0,4,40.14445979997981,,,,,,,,,,,40.12263850006275,40.14445979997981,,40.21172010002192,,,,39.863407799974084,39.876628300058655,39.9602066000225,39.9602066000225,40.04361930000596,40.04361930000596,40.14445979997981,40.11694019997958,,,,,,,,,,,,,,,,,,,,,,,,,,,,,,,,,,,,,,j, j,,727138,001,2024-12-19_19h08.17.689,AB,2024.1.5,None,2024-12-19 19h08.28.268156 +0800,
皱眉,微笑, j,0:09,0:06,0:10,六六,j,员尾,0,3,3,279,,,,,,,,,0,1,1,1,40.226794000016525,,,,,,,,,,,40.21188299998175,40.226794000016525,,40.29512650007382,,,,,,,,,,,,,,,,,,,,,,,,,,,,,,,,,,,,,,,,,,,,,,,,,j, j,,727138,001,2024-12-19_19h08.17.689,AB,2024.1.5,None,2024-12-19 19h08.28.268156 +0800,
皱眉,微笑, j,0:09,0:06,0:10,六六,j,行第,0,3,3,279,,,,,,,,,0,2,2,0,40.3101919000037,,,,,,,,,,,40.2952898000367,40.3101919000037,,40.37830570002552,,,,,,,,,,,,,,,,,,,,,,,,,,,,,,,,,,,,,,,,,,,,,,,,,j, j,,727138,001,2024-12-19_19h08.17.689,AB,2024.1.5,None,2024-12-19 19h08.28.268156 +0800,
皱眉,微笑, j,0:09,0:06,0:10,六六,j,巴糖,0,3,3,279,,,,,,,,,0,3,3,2,40.39353480003774,,,,,,,,,,,40.37848299997859,40.39353480003774,,40.461784000042826,,,,,,,,,,,,,,,,,,,,,,,,,,,,,,,,,,,,,,,,,,,,,,,,,j, j,,727138,001,2024-12-19_19h08.17.689,AB,2024.1.5,None,2024-12-19 19h08.28.268156 +0800,
皱眉,微笑, j,0:09,0:06,0:10,六六,j,小借,0,3,3,279,,,,,,,,,0,4,4,3,40.47692960000131,,,,,,,,,,,40.461967100040056,40.47692960000131,,40.54583349998575,,,,,,,,,,,,,,,,,,,,,,,,,,,,,,,,,,,,,,,,,,,,,,,,,j, j,,727138,001,2024-12-19_19h08.17.689,AB,2024.1.5,None,2024-12-19 19h08.28.268156 +0800,
街道,道路, f,0:06,0:06,0:03,十十,j,出亡,0,4,4,134,,,,,0,0,0,4,,,,,51.24271989997942,,,,,48.547489000018686,48.57839120004792,49.54332230007276,49.593256900087,50.542970700073056,50.52811750001274,51.22721000004094,51.24271989997942,50.794883000082336,51.31273600005079,51.04472550004721,51.14303670008667,51.21509660000447,,,,,,,,,40.5458991000196,40.56101699999999,41.56235000002198,41.56235000002198,41.56235000002198,43.577041600015946,43.5433897000039,43.577041600015946,44.54368370003067,44.536573000019416,None,0,44.537033200031146,44.54368370003067,45.544075199984945,45.544075199984945,45.544075199984945,47.54394300002605,47.54394300002605,47.54394300002605,,48.54697660007514,None,0,皱眉,微笑,None,None,0,0,[],[],小借,0.083,0.083,3,AB,j, f,51.24271989997942,727138,001,2024-12-19_19h08.17.689,AB,2024.1.5,None,2024-12-19 19h08.28.268156 +0800,
街道,道路, f,0:06,0:06,0:03,十十,j,员尾,0,4,4,134,,,,,0,1,1,1,,,,,51.32678950007539,,,,,,,,,,,51.31291079998482,51.32678950007539,,51.394745300058275,,,,,,,,,,,,,,,,,,,,,,,,,,,,,,,,,,,,,,,,,,,,,,,,,j, f,,727138,001,2024-12-19_19h08.17.689,AB,2024.1.5,None,2024-12-19 19h08.28.268156 +0800,
街道,道路, f,0:06,0:06,0:03,十十,j,巴糖,0,4,4,134,,,,,0,2,2,2,,,,,51.40996409999207,,,,,,,,,,,51.394906700006686,51.40996409999207,,51.47901490004733,,,,,,,,,,,,,,,,,,,,,,,,,,,,,,,,,,,,,,,,,,,,,,,,,j, f,,727138,001,2024-12-19_19h08.17.689,AB,2024.1.5,None,2024-12-19 19h08.28.268156 +0800,
街道,道路, f,0:06,0:06,0:03,十十,j,行第,0,4,4,134,,,,,0,3,3,0,,,,,51.49273320008069,,,,,,,,,,,51.47928139998112,51.49273320008069,,51.55469040002208,,,,,,,,,,,,,,,,,,,,,,,,,,,,,,,,,,,,,,,,,,,,,,,,,j, f,,727138,001,2024-12-19_19h08.17.689,AB,2024.1.5,None,2024-12-19 19h08.28.268156 +0800,
街道,道路, f,0:06,0:06,0:03,十十,j,小借,0,4,4,134,,,,,0,4,4,3,,,,,51.576196199981496,,,,,,,,,,,51.55509979999624,51.576196199981496,,51.645017600036226,,,,,,,,,,,,,,,,,,,,,,,,,,,,,,,,,,,,,,,,,,,,,,,,,j, f,,727138,001,2024-12-19_19h08.17.689,AB,2024.1.5,None,2024-12-19 19h08.28.268156 +0800,
街道,道路, f,0:06,0:06,0:03,十十,j,出亡,0,4,4,134,,,,,,,,,0,0,0,4,51.90988589997869,,,,,,,,,,,51.895212700008415,51.90988589997869,,51.96979400003329,,,,51.645074100000784,51.65951220004354,51.72692889999598,51.7428364000516,51.80968409997877,51.80968409997877,51.90988589997869,51.88110920006875,,,,,,,,,,,,,,,,,,,,,,,,,,,,,,,,,,,,,,j, f,,727138,001,2024-12-19_19h08.17.689,AB,2024.1.5,None,2024-12-19 19h08.28.268156 +0800,
街道,道路, f,0:06,0:06,0:03,十十,j,巴糖,0,4,4,134,,,,,,,,,0,1,1,2,51.9976689000614,,,,,,,,,,,51.97035100008361,51.9976689000614,,52.05372470000293,,,,,,,,,,,,,,,,,,,,,,,,,,,,,,,,,,,,,,,,,,,,,,,,,j, f,,727138,001,2024-12-19_19h08.17.689,AB,2024.1.5,None,2024-12-19 19h08.28.268156 +0800,
街道,道路, f,0:06,0:06,0:03,十十,j,小借,0,4,4,134,,,,,,,,,0,2,2,3,52.07813350006472,,,,,,,,,,,52.05452350003179,52.07813350006472,,52.15381300006993,,,,,,,,,,,,,,,,,,,,,,,,,,,,,,,,,,,,,,,,,,,,,,,,,j, f,,727138,001,2024-12-19_19h08.17.689,AB,2024.1.5,None,2024-12-19 19h08.28.268156 +0800,
街道,道路, f,0:06,0:06,0:03,十十,j,员尾,0,4,4,134,,,,,,,,,0,3,3,1,52.18019760004245,,,,,,,,,,,52.154589500045404,52.18019760004245,,52.22042020002846,,,,,,,,,,,,,,,,,,,,,,,,,,,,,,,,,,,,,,,,,,,,,,,,,j, f,,727138,001,2024-12-19_19h08.17.689,AB,2024.1.5,None,2024-12-19 19h08.28.268156 +0800,
街道,道路, f,0:06,0:06,0:03,十十,j,行第,0,4,4,134,,,,,,,,,0,4,4,0,52.24472279998008,,,,,,,,,,,52.22104079998098,52.24472279998008,,52.30011349997949,,,,,,,,,,,,,,,,,,,,,,,,,,,,,,,,,,,,,,,,,,,,,,,,,j, f,,727138,001,2024-12-19_19h08.17.689,AB,2024.1.5,None,2024-12-19 19h08.28.268156 +0800,
四月,五月, f,0:06,0:06,0:03,四四,j,小借,0,5,5,79,,,,,0,0,0,3,,,,,63.02630380005576,,,,,60.29531840002164,60.3091997000156,61.32831630005967,61.32831630005967,,62.29934360005427,63.01161789998878,63.02630380005576,,63.066973000066355,62.7998681999743,62.90962480008602,62.9851561000105,,,,,,,,,52.30027060001157,52.310285400017165,53.32712839997839,53.32712839997839,53.32712839997839,55.327641000039876,55.30983400007244,55.327641000039876,,56.29878730000928,None,0,56.299159300047904,56.30938440002501,57.309322500019334,57.309322500019334,57.309322500019334,59.30932290002238,59.30932290002238,59.30932290002238,60.3091997000156,60.29495070001576,None,0,街道,道路,None,None,0,0,[],[],行第,0.083,0.083,4,AB,j, f,,727138,001,2024-12-19_19h08.17.689,AB,2024.1.5,None,2024-12-19 19h08.28.268156 +0800,
四月,五月, f,0:06,0:06,0:03,四四,j,巴糖,0,5,5,79,,,,,0,1,1,2,,,,,63.092846899991855,,,,,,,,,,,63.06754479999654,63.092846899991855,,63.15144040004816,,,,,,,,,,,,,,,,,,,,,,,,,,,,,,,,,,,,,,,,,,,,,,,,,j, f,,727138,001,2024-12-19_19h08.17.689,AB,2024.1.5,None,2024-12-19 19h08.28.268156 +0800,
四月,五月, f,0:06,0:06,0:03,四四,j,行第,0,5,5,79,,,,,0,2,2,0,,,,,63.17666230001487,,,,,,,,,,,63.152272399980575,63.17666230001487,,63.233069400070235,,,,,,,,,,,,,,,,,,,,,,,,,,,,,,,,,,,,,,,,,,,,,,,,,j, f,,727138,001,2024-12-19_19h08.17.689,AB,2024.1.5,None,2024-12-19 19h08.28.268156 +0800,
四月,五月, f,0:06,0:06,0:03,四四,j,员尾,0,5,5,79,,,,,0,3,3,1,,,,,63.26081210002303,,,,,,,,,,,63.23397060006391,63.26081210002303,,63.316777399973944,,,,,,,,,,,,,,,,,,,,,,,,,,,,,,,,,,,,,,,,,,,,,,,,,j, f,,727138,001,2024-12-19_19h08.17.689,AB,2024.1.5,None,2024-12-19 19h08.28.268156 +0800,
四月,五月, f,0:06,0:06,0:03,四四,j,出亡,0,5,5,79,,,,,0,4,4,4,,,,,63.3444500999758,,,,,,,,,,,63.31729000003543,63.3444500999758,,63.39506170002278,,,,,,,,,,,,,,,,,,,,,,,,,,,,,,,,,,,,,,,,,,,,,,,,,j, f,,727138,001,2024-12-19_19h08.17.689,AB,2024.1.5,None,2024-12-19 19h08.28.268156 +0800,
四月,五月, f,0:06,0:06,0:03,四四,j,巴糖,0,5,5,79,,,,,,,,,0,0,0,2,63.67657860007603,,,,,,,,,,,63.6588488999987,63.67657860007603,,63.731857000035234,,,,63.39515380002558,63.40939759998582,63.47628609999083,63.49310930003412,63.56042360002175,63.56042360002175,63.67657860007603,63.633950200048275,,,,,,,,,,,,,,,,,,,,,,,,,,,,,,,,,,,,,,j, f,,727138,001,2024-12-19_19h08.17.689,AB,2024.1.5,None,2024-12-19 19h08.28.268156 +0800,
四月,五月, f,0:06,0:06,0:03,四四,j,出亡,0,5,5,79,,,,,,,,,0,1,1,4,63.74255209998228,,,,,,,,,,,63.732351100072265,63.74255209998228,,63.83297170000151,,,,,,,,,,,,,,,,,,,,,,,,,,,,,,,,,,,,,,,,,,,,,,,,,j, f,,727138,001,2024-12-19_19h08.17.689,AB,2024.1.5,None,2024-12-19 19h08.28.268156 +0800,
四月,五月, f,0:06,0:06,0:03,四四,j,小借,0,5,5,79,,,,,,,,,0,2,2,3,63.843074599979445,,,,,,,,,,,63.83351110003423,63.843074599979445,,63.90043979999609,,,,,,,,,,,,,,,,,,,,,,,,,,,,,,,,,,,,,,,,,,,,,,,,,j, f,,727138,001,2024-12-19_19h08.17.689,AB,2024.1.5,None,2024-12-19 19h08.28.268156 +0800,
四月,五月, f,0:06,0:06,0:03,四四,j,行第,0,5,5,79,,,,,,,,,0,3,3,0,63.928409600048326,,,,,,,,,,,63.901081199990585,63.928409600048326,,63.98424250003882,,,,,,,,,,,,,,,,,,,,,,,,,,,,,,,,,,,,,,,,,,,,,,,,,j, f,,727138,001,2024-12-19_19h08.17.689,AB,2024.1.5,None,2024-12-19 19h08.28.268156 +0800,
四月,五月, f,0:06,0:06,0:03,四四,j,员尾,0,5,5,79,,,,,,,,,0,4,4,1,64.0119819000829,,,,,,,,,,,63.98484940000344,64.0119819000829,,64.0668114,,,,,,,,,,,,,,,,,,,,,,,,,,,,,,,,,,,,,,,,,,,,,,,,,j, f,,727138,001,2024-12-19_19h08.17.689,AB,2024.1.5,None,2024-12-19 19h08.28.268156 +0800,
黑暗,光明, j,0:09,0:02,0:06,五五,f,小借,0,6,6,319,,,,,0,0,0,3,,,,,74.99228760006372,,,,,72.04434500006028,72.05870460008737,73.05878540000413,73.05878540000413,74.059036700055,74.04405730008148,74.98275570000987,74.99228760006372,75.07554990006611,75.06070640007965,74.79696850001346,74.90911290002987,74.977685400052,,,,,,,,,64.06698820006568,64.07632310001645,65.07605220004916,65.05892730003688,65.05892730003688,67.05854810005985,67.05854810005985,67.05854810005985,68.05895169998985,68.044058999978,None,0,68.04419080005027,68.05895169998985,69.05896469997242,69.05896469997242,69.05896469997242,71.05906200001482,71.05906200001482,71.05906200001482,72.05870460008737,72.04409950005356,None,0,四月,五月,None,None,0,0,[],[],员尾,0.083,0.083,5,AB,f, j,74.99228760006372,727138,001,2024-12-19_19h08.17.689,AB,2024.1.5,None,2024-12-19 19h08.28.268156 +0800,
黑暗,光明, j,0:09,0:02,0:06,五五,f,行第,0,6,6,319,,,,,0,1,1,0,,,,,75.07554990006611,,,,,,,,,,,75.0608685000334,75.07554990006611,75.15898740000557,75.14341340004466,,,,,,,,,,,,,,,,,,,,,,,,,,,,,,,,,,,,,,,,,,,,,,,,,f, j,,727138,001,2024-12-19_19h08.17.689,AB,2024.1.5,None,2024-12-19 19h08.28.268156 +0800,
黑暗,光明, j,0:09,0:02,0:06,五五,f,出亡,0,6,6,319,,,,,0,2,2,4,,,,,75.15898740000557,,,,,,,,,,,75.14356790005695,75.15898740000557,75.24211180000566,75.22723359998781,,,,,,,,,,,,,,,,,,,,,,,,,,,,,,,,,,,,,,,,,,,,,,,,,f, j,,727138,001,2024-12-19_19h08.17.689,AB,2024.1.5,None,2024-12-19 19h08.28.268156 +0800,
黑暗,光明, j,0:09,0:02,0:06,五五,f,巴糖,0,6,6,319,,,,,0,3,3,2,,,,,75.24211180000566,,,,,,,,,,,75.22739680006634,75.24211180000566,75.32546870002989,75.31093260005582,,,,,,,,,,,,,,,,,,,,,,,,,,,,,,,,,,,,,,,,,,,,,,,,,f, j,,727138,001,2024-12-19_19h08.17.689,AB,2024.1.5,None,2024-12-19 19h08.28.268156 +0800,
黑暗,光明, j,0:09,0:02,0:06,五五,f,员尾,0,6,6,319,,,,,0,4,4,1,,,,,75.32546870002989,,,,,,,,,,,75.3110985000385,75.32546870002989,75.40894510003272,75.39384160004556,,,,,,,,,,,,,,,,,,,,,,,,,,,,,,,,,,,,,,,,,,,,,,,,,f, j,,727138,001,2024-12-19_19h08.17.689,AB,2024.1.5,None,2024-12-19 19h08.28.268156 +0800,
黑暗,光明, j,0:09,0:02,0:06,五五,f,出亡,0,6,6,319,,,,,,,,,0,0,0,4,75.6590189000126,,,,,,,,,,,75.6491806000704,75.6590189000126,75.742044200073,75.7270201999927,,,,75.39389140007552,75.40894510003272,75.49235449999105,75.49235449999105,75.57531039998867,75.57531039998867,75.6590189000126,75.64397159998771,,,,,,,,,,,,,,,,,,,,,,,,,,,,,,,,,,,,,,f, j,,727138,001,2024-12-19_19h08.17.689,AB,2024.1.5,None,2024-12-19 19h08.28.268156 +0800,
黑暗,光明, j,0:09,0:02,0:06,五五,f,员尾,0,6,6,319,,,,,,,,,0,1,1,1,75.742044200073,,,,,,,,,,,75.72717840003315,75.742044200073,75.8251150000142,75.81063129997347,,,,,,,,,,,,,,,,,,,,,,,,,,,,,,,,,,,,,,,,,,,,,,,,,f, j,,727138,001,2024-12-19_19h08.17.689,AB,2024.1.5,None,2024-12-19 19h08.28.268156 +0800,
黑暗,光明, j,0:09,0:02,0:06,五五,f,巴糖,0,6,6,319,,,,,,,,,0,2,2,2,75.8251150000142,,,,,,,,,,,75.81079340004362,75.8251150000142,75.90864450007211,75.89405850006733,,,,,,,,,,,,,,,,,,,,,,,,,,,,,,,,,,,,,,,,,,,,,,,,,f, j,,727138,001,2024-12-19_19h08.17.689,AB,2024.1.5,None,2024-12-19 19h08.28.268156 +0800,
黑暗,光明, j,0:09,0:02,0:06,五五,f,小借,0,6,6,319,,,,,,,,,0,3,3,3,75.90864450007211,,,,,,,,,,,75.89422200003173,75.90864450007211,75.99174700002186,75.97931070008781,,,,,,,,,,,,,,,,,,,,,,,,,,,,,,,,,,,,,,,,,,,,,,,,,f, j,,727138,001,2024-12-19_19h08.17.689,AB,2024.1.5,None,2024-12-19 19h08.28.268156 +0800,
黑暗,光明, j,0:09,0:02,0:06,五五,f,行第,0,6,6,319,,,,,,,,,0,4,4,0,75.99174700002186,,,,,,,,,,,75.97948880004697,75.99174700002186,76.07551910006441,76.06204109999817,,,,,,,,,,,,,,,,,,,,,,,,,,,,,,,,,,,,,,,,,,,,,,,,,f, j,,727138,001,2024-12-19_19h08.17.689,AB,2024.1.5,None,2024-12-19 19h08.28.268156 +0800,
飞行,飞机, j,0:06,0:06,0:09,三三,f,小借,0,7,7,314,,,,,0,0,0,3,,,,,86.7582653000718,,,,,84.0604364000028,84.07507190003525,85.0746070999885,85.0746070999885,86.07521120004822,86.05970350001007,86.74897199997213,86.7582653000718,86.84153930004686,86.82686220004689,86.56032270006835,86.67486530006863,86.74365950003266,,,,,,,,,76.0621215000283,76.07551910006441,77.07583750004414,77.07583750004414,77.07583750004414,79.07529210008215,79.07529210008215,79.07529210008215,80.07520439999644,80.06034750002436,None,0,80.06047740008216,80.07520439999644,81.07554660004098,81.07554660004098,81.07554660004098,83.07502510002814,83.07502510002814,83.07502510002814,84.07507190003525,84.06020629999693,None,0,黑暗,光明,None,None,0,0,[],[],行第,0.083,0.083,6,AB,f, j,86.7582653000718,727138,001,2024-12-19_19h08.17.689,AB,2024.1.5,None,2024-12-19 19h08.28.268156 +0800,
飞行,飞机, j,0:06,0:06,0:09,三三,f,员尾,0,7,7,314,,,,,0,1,1,1,,,,,86.84153930004686,,,,,,,,,,,86.8270350000821,86.84153930004686,86.92501710006036,86.91025650000665,,,,,,,,,,,,,,,,,,,,,,,,,,,,,,,,,,,,,,,,,,,,,,,,,f, j,,727138,001,2024-12-19_19h08.17.689,AB,2024.1.5,None,2024-12-19 19h08.28.268156 +0800,
飞行,飞机, j,0:06,0:06,0:09,三三,f,行第,0,7,7,314,,,,,0,2,2,0,,,,,86.92501710006036,,,,,,,,,,,86.9104243000038,86.92501710006036,87.0085411000764,86.99328789999709,,,,,,,,,,,,,,,,,,,,,,,,,,,,,,,,,,,,,,,,,,,,,,,,,f, j,,727138,001,2024-12-19_19h08.17.689,AB,2024.1.5,None,2024-12-19 19h08.28.268156 +0800,
飞行,飞机, j,0:06,0:06,0:09,三三,f,出亡,0,7,7,314,,,,,0,3,3,4,,,,,87.0085411000764,,,,,,,,,,,86.99344680004288,87.0085411000764,87.09163290006109,87.07640250003897,,,,,,,,,,,,,,,,,,,,,,,,,,,,,,,,,,,,,,,,,,,,,,,,,f, j,,727138,001,2024-12-19_19h08.17.689,AB,2024.1.5,None,2024-12-19 19h08.28.268156 +0800,
飞行,飞机, j,0:06,0:06,0:09,三三,f,巴糖,0,7,7,314,,,,,0,4,4,2,,,,,87.09163290006109,,,,,,,,,,,87.07656519999728,87.09163290006109,87.17467920004856,87.1604732000269,,,,,,,,,,,,,,,,,,,,,,,,,,,,,,,,,,,,,,,,,,,,,,,,,f, j,,727138,001,2024-12-19_19h08.17.689,AB,2024.1.5,None,2024-12-19 19h08.28.268156 +0800,
飞行,飞机, j,0:06,0:06,0:09,三三,f,出亡,0,7,7,314,,,,,,,,,0,0,0,4,87.42450229998212,,,,,,,,,,,87.41539850004483,87.42450229998212,87.50833570002578,87.49343600007705,,,,87.16052520007361,87.17467920004856,87.25808669999242,87.25808669999242,87.34151759999804,87.34151759999804,87.42450229998212,87.4099208000116,,,,,,,,,,,,,,,,,,,,,,,,,,,,,,,,,,,,,,f, j,,727138,001,2024-12-19_19h08.17.689,AB,2024.1.5,None,2024-12-19 19h08.28.268156 +0800,
飞行,飞机, j,0:06,0:06,0:09,三三,f,巴糖,0,7,7,314,,,,,,,,,0,1,1,2,87.50833570002578,,,,,,,,,,,87.49360210006125,87.50833570002578,87.59183020005003,87.57654050004203,,,,,,,,,,,,,,,,,,,,,,,,,,,,,,,,,,,,,,,,,,,,,,,,,f, j,,727138,001,2024-12-19_19h08.17.689,AB,2024.1.5,None,2024-12-19 19h08.28.268156 +0800,
飞行,飞机, j,0:06,0:06,0:09,三三,f,员尾,0,7,7,314,,,,,,,,,0,2,2,1,87.59183020005003,,,,,,,,,,,87.57669620006345,87.59183020005003,87.67493630002718,87.66013159998693,,,,,,,,,,,,,,,,,,,,,,,,,,,,,,,,,,,,,,,,,,,,,,,,,f, j,,727138,001,2024-12-19_19h08.17.689,AB,2024.1.5,None,2024-12-19 19h08.28.268156 +0800,
飞行,飞机, j,0:06,0:06,0:09,三三,f,小借,0,7,7,314,,,,,,,,,0,3,3,3,87.67493630002718,,,,,,,,,,,87.66029220004566,87.67493630002718,87.75837649998721,87.74324550002348,,,,,,,,,,,,,,,,,,,,,,,,,,,,,,,,,,,,,,,,,,,,,,,,,f, j,,727138,001,2024-12-19_19h08.17.689,AB,2024.1.5,None,2024-12-19 19h08.28.268156 +0800,
飞行,飞机, j,0:06,0:06,0:09,三三,f,行第,0,7,7,314,,,,,,,,,0,4,4,0,87.75837649998721,,,,,,,,,,,87.74339710001368,87.75837649998721,87.84139469999354,87.82658290001564,,,,,,,,,,,,,,,,,,,,,,,,,,,,,,,,,,,,,,,,,,,,,,,,,f, j,,727138,001,2024-12-19_19h08.17.689,AB,2024.1.5,None,2024-12-19 19h08.28.268156 +0800,
小牛,母牛, j,0:06,0:02,0:10,三三,j,出亡,0,8,8,270,,,,,0,0,0,4,,,,,98.54112010006793,,,,,95.82691800000612,95.84122350008693,96.8409299000632,96.8409299000632,,97.827685700031,98.52236439997796,98.54112010006793,,98.59458120004274,98.32799420005176,98.44104459998198,98.51123599999119,,,,,,,,,87.82663660007529,87.84139469999354,88.8414929000428,88.8414929000428,88.8414929000428,90.84129560005385,90.84129560005385,90.84129560005385,91.84135270002298,91.82674300007056,None,0,91.82688409998082,91.84135270002298,92.84129150002263,92.84129150002263,92.84129150002263,94.84119649999775,94.84119649999775,94.84119649999775,95.84122350008693,95.82663849997334,None,0,飞行,飞机,None,None,0,0,[],[],行第,0.083,0.083,7,AB,j, j,,727138,001,2024-12-19_19h08.17.689,AB,2024.1.5,None,2024-12-19 19h08.28.268156 +0800,
小牛,母牛, j,0:06,0:02,0:10,三三,j,员尾,0,8,8,270,,,,,0,1,1,1,,,,,98.60775570000987,,,,,,,,,,,98.5950774999801,98.60775570000987,,98.67768309998792,,,,,,,,,,,,,,,,,,,,,,,,,,,,,,,,,,,,,,,,,,,,,,,,,j, j,,727138,001,2024-12-19_19h08.17.689,AB,2024.1.5,None,2024-12-19 19h08.28.268156 +0800,
小牛,母牛, j,0:06,0:02,0:10,三三,j,巴糖,0,8,8,270,,,,,0,2,2,2,,,,,98.6908808000153,,,,,,,,,,,98.67798949999269,98.6908808000153,,98.76103940000758,,,,,,,,,,,,,,,,,,,,,,,,,,,,,,,,,,,,,,,,,,,,,,,,,j, j,,727138,001,2024-12-19_19h08.17.689,AB,2024.1.5,None,2024-12-19 19h08.28.268156 +0800,
小牛,母牛, j,0:06,0:02,0:10,三三,j,行第,0,8,8,270,,,,,0,3,3,0,,,,,98.77428540005349,,,,,,,,,,,98.76136620005127,98.77428540005349,,98.84480540000368,,,,,,,,,,,,,,,,,,,,,,,,,,,,,,,,,,,,,,,,,,,,,,,,,j, j,,727138,001,2024-12-19_19h08.17.689,AB,2024.1.5,None,2024-12-19 19h08.28.268156 +0800,
小牛,母牛, j,0:06,0:02,0:10,三三,j,小借,0,8,8,270,,,,,0,4,4,3,,,,,98.85768770007417,,,,,,,,,,,98.8451082999818,98.85768770007417,,98.92840049997903,,,,,,,,,,,,,,,,,,,,,,,,,,,,,,,,,,,,,,,,,,,,,,,,,j, j,,727138,001,2024-12-19_19h08.17.689,AB,2024.1.5,None,2024-12-19 19h08.28.268156 +0800,
小牛,母牛, j,0:06,0:02,0:10,三三,j,员尾,0,8,8,270,,,,,,,,,0,0,0,1,99.19101130007766,,,,,,,,,,,99.17339600005653,99.19101130007766,,99.26084910007194,,,,98.92849020007998,98.94101509999018,99.00760670006275,99.0243080999935,99.0908184000291,99.0908184000291,99.19101130007766,99.16021050000563,,,,,,,,,,,,,,,,,,,,,,,,,,,,,,,,,,,,,,j, j,,727138,001,2024-12-19_19h08.17.689,AB,2024.1.5,None,2024-12-19 19h08.28.268156 +0800,
小牛,母牛, j,0:06,0:02,0:10,三三,j,行第,0,8,8,270,,,,,,,,,0,1,1,0,99.27420960005838,,,,,,,,,,,99.2611612000037,99.27420960005838,,99.34458540007472,,,,,,,,,,,,,,,,,,,,,,,,,,,,,,,,,,,,,,,,,,,,,,,,,j, j,,727138,001,2024-12-19_19h08.17.689,AB,2024.1.5,None,2024-12-19 19h08.28.268156 +0800,
小牛,母牛, j,0:06,0:02,0:10,三三,j,出亡,0,8,8,270,,,,,,,,,0,2,2,4,99.35771920008119,,,,,,,,,,,99.34490460006054,99.35771920008119,,99.42609080008697,,,,,,,,,,,,,,,,,,,,,,,,,,,,,,,,,,,,,,,,,,,,,,,,,j, j,,727138,001,2024-12-19_19h08.17.689,AB,2024.1.5,None,2024-12-19 19h08.28.268156 +0800,
小牛,母牛, j,0:06,0:02,0:10,三三,j,巴糖,0,8,8,270,,,,,,,,,0,3,3,2,99.44118830002844,,,,,,,,,,,99.42630490008742,99.44118830002844,,99.50940350000747,,,,,,,,,,,,,,,,,,,,,,,,,,,,,,,,,,,,,,,,,,,,,,,,,j, j,,727138,001,2024-12-19_19h08.17.689,AB,2024.1.5,None,2024-12-19 19h08.28.268156 +0800,
小牛,母牛, j,0:06,0:02,0:10,三三,j,小借,0,8,8,270,,,,,,,,,0,4,4,3,99.52463420003187,,,,,,,,,,,99.50959500006866,99.52463420003187,,99.59232489997521,,,,,,,,,,,,,,,,,,,,,,,,,,,,,,,,,,,,,,,,,,,,,,,,,j, j,,727138,001,2024-12-19_19h08.17.689,AB,2024.1.5,None,2024-12-19 19h08.28.268156 +0800,
臭鼬,臭味, f,0:06,0:06,0:03,十十,f,员尾,0,9,9,310,,,,,0,0,0,1,,,,,110.27432490000501,,,,,107.57898990006652,107.5907805999741,108.5906339000212,108.5906339000212,109.59091859997716,109.57624630001374,110.26440079999156,110.27432490000501,110.35754670004826,110.34233570005745,110.07567290007137,110.19080069998745,110.25933210004587,,,,,,,,,99.59238669998012,99.6077497000806,100.60786200000439,100.59094889997505,100.59094889997505,102.5909510999918,102.5909510999918,102.5909510999918,103.59045320004225,103.57600790006109,None,0,103.57613990001846,103.59045320004225,104.59094760008156,104.59094760008156,104.59094760008156,106.59074090002105,106.59074090002105,106.59074090002105,107.5907805999741,107.57856609998271,None,0,小牛,母牛,None,None,0,0,[],[],小借,0.083,0.083,8,AB,f, f,110.27432490000501,727138,001,2024-12-19_19h08.17.689,AB,2024.1.5,None,2024-12-19 19h08.28.268156 +0800,
臭鼬,臭味, f,0:06,0:06,0:03,十十,f,出亡,0,9,9,310,,,,,0,1,1,4,,,,,110.35754670004826,,,,,,,,,,,110.34249339997768,110.35754670004826,110.44062460004352,110.4260308999801,,,,,,,,,,,,,,,,,,,,,,,,,,,,,,,,,,,,,,,,,,,,,,,,,f, f,,727138,001,2024-12-19_19h08.17.689,AB,2024.1.5,None,2024-12-19 19h08.28.268156 +0800,
臭鼬,臭味, f,0:06,0:06,0:03,十十,f,行第,0,9,9,310,,,,,0,2,2,0,,,,,110.44062460004352,,,,,,,,,,,110.42619720008224,110.44062460004352,110.52424980001524,110.50918420008384,,,,,,,,,,,,,,,,,,,,,,,,,,,,,,,,,,,,,,,,,,,,,,,,,f, f,,727138,001,2024-12-19_19h08.17.689,AB,2024.1.5,None,2024-12-19 19h08.28.268156 +0800,
臭鼬,臭味, f,0:06,0:06,0:03,十十,f,巴糖,0,9,9,310,,,,,0,3,3,2,,,,,110.52424980001524,,,,,,,,,,,110.50934290001169,110.52424980001524,110.60734440002125,110.59239390003495,,,,,,,,,,,,,,,,,,,,,,,,,,,,,,,,,,,,,,,,,,,,,,,,,f, f,,727138,001,2024-12-19_19h08.17.689,AB,2024.1.5,None,2024-12-19 19h08.28.268156 +0800,
臭鼬,臭味, f,0:06,0:06,0:03,十十,f,小借,0,9,9,310,,,,,0,4,4,3,,,,,110.60734440002125,,,,,,,,,,,110.59255509998184,110.60734440002125,110.69079430005513,110.6756620000815,,,,,,,,,,,,,,,,,,,,,,,,,,,,,,,,,,,,,,,,,,,,,,,,,f, f,,727138,001,2024-12-19_19h08.17.689,AB,2024.1.5,None,2024-12-19 19h08.28.268156 +0800,
臭鼬,臭味, f,0:06,0:06,0:03,十十,f,小借,0,9,9,310,,,,,,,,,0,0,0,3,110.9402662999928,,,,,,,,,,,110.9311646000715,110.9402662999928,111.02395679999609,111.00910090003163,,,,110.67571350000799,110.69079430005513,110.77377640001941,110.77377640001941,110.85716930008493,110.85716930008493,110.9402662999928,110.92574299999978,,,,,,,,,,,,,,,,,,,,,,,,,,,,,,,,,,,,,,f, f,,727138,001,2024-12-19_19h08.17.689,AB,2024.1.5,None,2024-12-19 19h08.28.268156 +0800,
臭鼬,臭味, f,0:06,0:06,0:03,十十,f,员尾,0,9,9,310,,,,,,,,,0,1,1,1,111.02395679999609,,,,,,,,,,,111.00927300006151,111.02395679999609,111.10726780002005,111.09227180003654,,,,,,,,,,,,,,,,,,,,,,,,,,,,,,,,,,,,,,,,,,,,,,,,,f, f,,727138,001,2024-12-19_19h08.17.689,AB,2024.1.5,None,2024-12-19 19h08.28.268156 +0800,
臭鼬,臭味, f,0:06,0:06,0:03,十十,f,出亡,0,9,9,310,,,,,,,,,0,2,2,4,111.10726780002005,,,,,,,,,,,111.09243580000475,111.10726780002005,111.19062170002144,111.17558819998521,,,,,,,,,,,,,,,,,,,,,,,,,,,,,,,,,,,,,,,,,,,,,,,,,f, f,,727138,001,2024-12-19_19h08.17.689,AB,2024.1.5,None,2024-12-19 19h08.28.268156 +0800,
臭鼬,臭味, f,0:06,0:06,0:03,十十,f,行第,0,9,9,310,,,,,,,,,0,3,3,0,111.19062170002144,,,,,,,,,,,111.17574800003786,111.19062170002144,111.27419959998224,111.25895030004904,,,,,,,,,,,,,,,,,,,,,,,,,,,,,,,,,,,,,,,,,,,,,,,,,f, f,,727138,001,2024-12-19_19h08.17.689,AB,2024.1.5,None,2024-12-19 19h08.28.268156 +0800,
臭鼬,臭味, f,0:06,0:06,0:03,十十,f,巴糖,0,9,9,310,,,,,,,,,0,4,4,2,111.27419959998224,,,,,,,,,,,111.25910969998222,111.27419959998224,111.35726940003224,111.34244180005044,,,,,,,,,,,,,,,,,,,,,,,,,,,,,,,,,,,,,,,,,,,,,,,,,f, f,,727138,001,2024-12-19_19h08.17.689,AB,2024.1.5,None,2024-12-19 19h08.28.268156 +0800,
圣经,书籍, j,0:09,0.0,0:10,十十,f,员尾,0,10,10,163,,,,,0,0,0,1,,,,,122.28990900004283,,,,,119.34267160005402,119.35620669997297,120.35691850003786,120.35691850003786,121.35705530003179,121.34152910008561,122.28145350003615,122.28990900004283,122.37355390004814,122.3589093000628,122.0919961000327,122.20632820005994,122.27535860007629,,,,,,,,,111.34249670000281,111.35726940003224,112.35714500001632,112.35714500001632,112.35714500001632,114.3567126999842,114.3567126999842,114.3567126999842,115.35704070003703,115.34292930003721,None,0,115.34311030001845,115.35704070003703,116.3568224000046,116.3568224000046,116.3568224000046,118.35719950008206,118.35719950008206,118.35719950008206,119.35620669997297,119.34232990001328,None,0,臭鼬,臭味,None,None,0,0,[],[],巴糖,0.083,0.083,9,AB,f, j,122.28990900004283,727138,001,2024-12-19_19h08.17.689,AB,2024.1.5,None,2024-12-19 19h08.28.268156 +0800,
圣经,书籍, j,0:09,0.0,0:10,十十,f,出亡,0,10,10,163,,,,,0,1,1,4,,,,,122.37355390004814,,,,,,,,,,,122.35908670001663,122.37355390004814,122.45684410003014,122.44197100005113,,,,,,,,,,,,,,,,,,,,,,,,,,,,,,,,,,,,,,,,,,,,,,,,,f, j,,727138,001,2024-12-19_19h08.17.689,AB,2024.1.5,None,2024-12-19 19h08.28.268156 +0800,
圣经,书籍, j,0:09,0.0,0:10,十十,f,巴糖,0,10,10,163,,,,,0,2,2,2,,,,,122.45684410003014,,,,,,,,,,,122.44214699999429,122.45684410003014,122.53997550008353,122.52527700003702,,,,,,,,,,,,,,,,,,,,,,,,,,,,,,,,,,,,,,,,,,,,,,,,,f, j,,727138,001,2024-12-19_19h08.17.689,AB,2024.1.5,None,2024-12-19 19h08.28.268156 +0800,
圣经,书籍, j,0:09,0.0,0:10,十十,f,小借,0,10,10,163,,,,,0,3,3,3,,,,,122.53997550008353,,,,,,,,,,,122.52544350002427,122.53997550008353,122.62378300004639,122.60841350001283,,,,,,,,,,,,,,,,,,,,,,,,,,,,,,,,,,,,,,,,,,,,,,,,,f, j,,727138,001,2024-12-19_19h08.17.689,AB,2024.1.5,None,2024-12-19 19h08.28.268156 +0800,
圣经,书籍, j,0:09,0.0,0:10,十十,f,行第,0,10,10,163,,,,,0,4,4,0,,,,,122.62378300004639,,,,,,,,,,,122.60859770001844,122.62378300004639,122.70669640006963,122.69219430000521,,,,,,,,,,,,,,,,,,,,,,,,,,,,,,,,,,,,,,,,,,,,,,,,,f, j,,727138,001,2024-12-19_19h08.17.689,AB,2024.1.5,None,2024-12-19 19h08.28.268156 +0800,
圣经,书籍, j,0:09,0.0,0:10,十十,f,巴糖,0,10,10,163,,,,,,,,,0,0,0,2,122.95716290001292,,,,,,,,,,,122.94726210006047,122.95716290001292,,123.02496860001702,,,,122.69224820006639,122.70669640006963,122.79291610000655,122.79291610000655,122.89011540007778,122.87339259998407,,122.94158810004592,,,,,,,,,,,,,,,,,,,,,,,,,,,,,,,,,,,,,,f, j,,727138,001,2024-12-19_19h08.17.689,AB,2024.1.5,None,2024-12-19 19h08.28.268156 +0800,
圣经,书籍, j,0:09,0.0,0:10,十十,f,出亡,0,10,10,163,,,,,,,,,0,1,1,4,123.04061040002853,,,,,,,,,,,123.02513339999132,123.04061040002853,,123.10817979997955,,,,,,,,,,,,,,,,,,,,,,,,,,,,,,,,,,,,,,,,,,,,,,,,,f, j,,727138,001,2024-12-19_19h08.17.689,AB,2024.1.5,None,2024-12-19 19h08.28.268156 +0800,
圣经,书籍, j,0:09,0.0,0:10,十十,f,员尾,0,10,10,163,,,,,,,,,0,2,2,1,123.12384979997296,,,,,,,,,,,123.10838710004464,123.12384979997296,,123.19145659997594,,,,,,,,,,,,,,,,,,,,,,,,,,,,,,,,,,,,,,,,,,,,,,,,,f, j,,727138,001,2024-12-19_19h08.17.689,AB,2024.1.5,None,2024-12-19 19h08.28.268156 +0800,
圣经,书籍, j,0:09,0.0,0:10,十十,f,小借,0,10,10,163,,,,,,,,,0,3,3,3,123.2071645000251,,,,,,,,,,,123.19161580002401,123.2071645000251,,123.27457360003609,,,,,,,,,,,,,,,,,,,,,,,,,,,,,,,,,,,,,,,,,,,,,,,,,f, j,,727138,001,2024-12-19_19h08.17.689,AB,2024.1.5,None,2024-12-19 19h08.28.268156 +0800,
圣经,书籍, j,0:09,0.0,0:10,十十,f,行第,0,10,10,163,,,,,,,,,0,4,4,0,123.28954959998373,,,,,,,,,,,123.27474750007968,123.28954959998373,,123.3582414999837,,,,,,,,,,,,,,,,,,,,,,,,,,,,,,,,,,,,,,,,,,,,,,,,,f, j,,727138,001,2024-12-19_19h08.17.689,AB,2024.1.5,None,2024-12-19 19h08.28.268156 +0800,
站立,坐下, j,0:09,0.0,0:10,二二,f,出亡,0,11,11,247,,,,,0,0,0,4,,,,,134.30596799997147,,,,,131.34453180001583,131.35605699999724,132.35618740005884,132.35618740005884,133.35609790007584,133.3417265000753,134.28953559999354,134.30596799997147,134.10600360005628,134.37440640002023,134.09130369999912,134.20653640001547,134.27805570000783,,,,,,,,,123.35829830006696,123.37329170003068,124.37321810005233,124.35661780007649,124.35661780007649,126.35656690003816,126.35656690003816,126.35656690003816,127.35659870004747,127.34155580005608,None,0,127.34170109999832,127.35659870004747,128.35677730001044,128.35677730001044,128.35677730001044,130.35633139999118,130.35633139999118,130.35633139999118,131.35605699999724,131.34400520008057,None,0,圣经,书籍,None,None,0,0,[],[],行第,0.083,0.083,10,AB,f, j,134.30596799997147,727138,001,2024-12-19_19h08.17.689,AB,2024.1.5,None,2024-12-19 19h08.28.268156 +0800,
站立,坐下, j,0:09,0.0,0:10,二二,f,行第,0,11,11,247,,,,,0,1,1,0,,,,,134.3897798000835,,,,,,,,,,,134.37456889997702,134.3897798000835,,134.4576209000079,,,,,,,,,,,,,,,,,,,,,,,,,,,,,,,,,,,,,,,,,,,,,,,,,f, j,,727138,001,2024-12-19_19h08.17.689,AB,2024.1.5,None,2024-12-19 19h08.28.268156 +0800,
站立,坐下, j,0:09,0.0,0:10,二二,f,小借,0,11,11,247,,,,,0,2,2,3,,,,,134.47280800004955,,,,,,,,,,,134.45777890004683,134.47280800004955,,134.54097910004202,,,,,,,,,,,,,,,,,,,,,,,,,,,,,,,,,,,,,,,,,,,,,,,,,f, j,,727138,001,2024-12-19_19h08.17.689,AB,2024.1.5,None,2024-12-19 19h08.28.268156 +0800,
站立,坐下, j,0:09,0.0,0:10,二二,f,员尾,0,11,11,247,,,,,0,3,3,1,,,,,134.55626660003327,,,,,,,,,,,134.54113630007487,134.55626660003327,,134.62523230002262,,,,,,,,,,,,,,,,,,,,,,,,,,,,,,,,,,,,,,,,,,,,,,,,,f, j,,727138,001,2024-12-19_19h08.17.689,AB,2024.1.5,None,2024-12-19 19h08.28.268156 +0800,
站立,坐下, j,0:09,0.0,0:10,二二,f,巴糖,0,11,11,247,,,,,0,4,4,2,,,,,134.63927980000153,,,,,,,,,,,134.62540690007154,134.63927980000153,,134.70787390007172,,,,,,,,,,,,,,,,,,,,,,,,,,,,,,,,,,,,,,,,,,,,,,,,,f, j,,727138,001,2024-12-19_19h08.17.689,AB,2024.1.5,None,2024-12-19 19h08.28.268156 +0800,
站立,坐下, j,0:09,0.0,0:10,二二,f,出亡,0,11,11,247,,,,,,,,,0,0,0,4,134.95603600004688,,,,,,,,,,,134.94726749998517,134.95603600004688,135.03952400002163,135.02482599997893,,,,134.70793650008272,134.72295590001158,134.7957104999805,134.80636350007262,134.889629399986,134.8727682000026,134.95603600004688,134.94148919999134,,,,,,,,,,,,,,,,,,,,,,,,,,,,,,,,,,,,,,f, j,,727138,001,2024-12-19_19h08.17.689,AB,2024.1.5,None,2024-12-19 19h08.28.268156 +0800,
站立,坐下, j,0:09,0.0,0:10,二二,f,小借,0,11,11,247,,,,,,,,,0,1,1,3,135.03952400002163,,,,,,,,,,,135.02499860001262,135.03952400002163,135.12277740007266,135.10809280001558,,,,,,,,,,,,,,,,,,,,,,,,,,,,,,,,,,,,,,,,,,,,,,,,,f, j,,727138,001,2024-12-19_19h08.17.689,AB,2024.1.5,None,2024-12-19 19h08.28.268156 +0800,
站立,坐下, j,0:09,0.0,0:10,二二,f,巴糖,0,11,11,247,,,,,,,,,0,2,2,2,135.12277740007266,,,,,,,,,,,135.1082604000112,135.12277740007266,135.20622819999699,135.19136479997542,,,,,,,,,,,,,,,,,,,,,,,,,,,,,,,,,,,,,,,,,,,,,,,,,f, j,,727138,001,2024-12-19_19h08.17.689,AB,2024.1.5,None,2024-12-19 19h08.28.268156 +0800,
站立,坐下, j,0:09,0.0,0:10,二二,f,员尾,0,11,11,247,,,,,,,,,0,3,3,1,135.20622819999699,,,,,,,,,,,135.19153110007755,135.20622819999699,135.28965849999804,135.274741500034,,,,,,,,,,,,,,,,,,,,,,,,,,,,,,,,,,,,,,,,,,,,,,,,,f, j,,727138,001,2024-12-19_19h08.17.689,AB,2024.1.5,None,2024-12-19 19h08.28.268156 +0800,
站立,坐下, j,0:09,0.0,0:10,二二,f,行第,0,11,11,247,,,,,,,,,0,4,4,0,135.28965849999804,,,,,,,,,,,135.27491130004637,135.28965849999804,135.37298019998707,135.3579140000511,,,,,,,,,,,,,,,,,,,,,,,,,,,,,,,,,,,,,,,,,,,,,,,,,f, j,,727138,001,2024-12-19_19h08.17.689,AB,2024.1.5,None,2024-12-19 19h08.28.268156 +0800,
风暴,云层, j,0:06,0:06,0:10,四四,f,员尾,0,12,12,165,,,,,0,0,0,1,,,,,146.05588420003187,,,,,143.35823160002474,143.37220039998647,144.37254760006908,144.37254760006908,145.37248100002762,145.35725340002682,146.0457969000563,146.05588420003187,146.1391521000769,146.12430130003486,145.85697209998034,145.9726860000519,146.04078889999073,,,,,,,,,135.35796679998748,135.37298019998707,136.37280590005685,136.37280590005685,136.37280590005685,138.3727139000548,138.3727139000548,138.3727139000548,139.3726437999867,139.35785720008425,None,0,139.35799300007056,139.3726437999867,140.37311100005172,140.37311100005172,140.37311100005172,142.3724465999985,142.3724465999985,142.3724465999985,143.37220039998647,143.35798780003097,None,0,站立,坐下,None,None,0,0,[],[],行第,0.083,0.083,11,AB,f, j,146.05588420003187,727138,001,2024-12-19_19h08.17.689,AB,2024.1.5,None,2024-12-19 19h08.28.268156 +0800,
风暴,云层, j,0:06,0:06,0:10,四四,f,小借,0,12,12,165,,,,,0,1,1,3,,,,,146.1391521000769,,,,,,,,,,,146.12446409999393,146.1391521000769,146.22270320006646,146.2074442000594,,,,,,,,,,,,,,,,,,,,,,,,,,,,,,,,,,,,,,,,,,,,,,,,,f, j,,727138,001,2024-12-19_19h08.17.689,AB,2024.1.5,None,2024-12-19 19h08.28.268156 +0800,
风暴,云层, j,0:06,0:06,0:10,四四,f,巴糖,0,12,12,165,,,,,0,2,2,2,,,,,146.22270320006646,,,,,,,,,,,146.2075989000732,146.22270320006646,146.30585700005759,146.2910008999752,,,,,,,,,,,,,,,,,,,,,,,,,,,,,,,,,,,,,,,,,,,,,,,,,f, j,,727138,001,2024-12-19_19h08.17.689,AB,2024.1.5,None,2024-12-19 19h08.28.268156 +0800,
风暴,云层, j,0:06,0:06,0:10,四四,f,出亡,0,12,12,165,,,,,0,3,3,4,,,,,146.30585700005759,,,,,,,,,,,146.29118310008198,146.30585700005759,146.38906650000717,146.37454680004157,,,,,,,,,,,,,,,,,,,,,,,,,,,,,,,,,,,,,,,,,,,,,,,,,f, j,,727138,001,2024-12-19_19h08.17.689,AB,2024.1.5,None,2024-12-19 19h08.28.268156 +0800,
风暴,云层, j,0:06,0:06,0:10,四四,f,行第,0,12,12,165,,,,,0,4,4,0,,,,,146.38906650000717,,,,,,,,,,,146.37471990007907,146.38906650000717,146.4723737000022,146.4576615000842,,,,,,,,,,,,,,,,,,,,,,,,,,,,,,,,,,,,,,,,,,,,,,,,,f, j,,727138,001,2024-12-19_19h08.17.689,AB,2024.1.5,None,2024-12-19 19h08.28.268156 +0800,
风暴,云层, j,0:06,0:06,0:10,四四,f,小借,0,12,12,165,,,,,,,,,0,0,0,3,146.7224612000864,,,,,,,,,,,146.7129046000773,146.7224612000864,,146.79616710008122,,,,146.45772030006628,146.4723737000022,146.5561573000159,146.5561573000159,146.63903120008763,146.63903120008763,146.7224612000864,146.70767520007212,,,,,,,,,,,,,,,,,,,,,,,,,,,,,,,,,,,,,,f, j,,727138,001,2024-12-19_19h08.17.689,AB,2024.1.5,None,2024-12-19 19h08.28.268156 +0800,
风暴,云层, j,0:06,0:06,0:10,四四,f,员尾,0,12,12,165,,,,,,,,,0,1,1,1,146.80543509998824,,,,,,,,,,,146.79642730008345,146.80543509998824,146.88929299998563,146.87448650004808,,,,,,,,,,,,,,,,,,,,,,,,,,,,,,,,,,,,,,,,,,,,,,,,,f, j,,727138,001,2024-12-19_19h08.17.689,AB,2024.1.5,None,2024-12-19 19h08.28.268156 +0800,
风暴,云层, j,0:06,0:06,0:10,四四,f,行第,0,12,12,165,,,,,,,,,0,2,2,0,146.88929299998563,,,,,,,,,,,146.8746507000178,146.88929299998563,146.9723750000121,146.95733070001006,,,,,,,,,,,,,,,,,,,,,,,,,,,,,,,,,,,,,,,,,,,,,,,,,f, j,,727138,001,2024-12-19_19h08.17.689,AB,2024.1.5,None,2024-12-19 19h08.28.268156 +0800,
风暴,云层, j,0:06,0:06,0:10,四四,f,巴糖,0,12,12,165,,,,,,,,,0,3,3,2,146.9723750000121,,,,,,,,,,,146.95748700003605,146.9723750000121,147.05534399999306,147.04097149998415,,,,,,,,,,,,,,,,,,,,,,,,,,,,,,,,,,,,,,,,,,,,,,,,,f, j,,727138,001,2024-12-19_19h08.17.689,AB,2024.1.5,None,2024-12-19 19h08.28.268156 +0800,
风暴,云层, j,0:06,0:06,0:10,四四,f,出亡,0,12,12,165,,,,,,,,,0,4,4,4,147.05534399999306,,,,,,,,,,,147.04113630007487,147.05534399999306,147.13921300007496,147.12428970006295,,,,,,,,,,,,,,,,,,,,,,,,,,,,,,,,,,,,,,,,,,,,,,,,,f, j,,727138,001,2024-12-19_19h08.17.689,AB,2024.1.5,None,2024-12-19 19h08.28.268156 +0800,
帮助,协助, f,0:06,0.0,0:03,八八,f,出亡,0,13,13,274,,,,,0,0,0,4,,,,,157.82201610004995,,,,,155.12418380007148,155.13889120006934,156.13868370000273,156.13868370000273,157.1387547000777,157.12373320001643,157.81184710003436,157.82201610004995,157.63852500007488,157.89036359998863,157.62371349998284,157.7385744000785,157.80675900005735,,,,,,,,,147.12434430001304,147.13921300007496,148.13885850005317,148.13885850005317,148.13885850005317,150.13905200001318,150.13905200001318,150.13905200001318,151.1389016000321,151.1240321000805,None,0,151.1241617000196,151.1389016000321,152.13900700001977,152.13900700001977,152.13900700001977,154.13849590008613,154.13849590008613,154.13849590008613,155.13889120006934,155.1239514000481,None,0,风暴,云层,None,None,0,0,[],[],出亡,0.083,0.083,12,AB,f, f,,727138,001,2024-12-19_19h08.17.689,AB,2024.1.5,None,2024-12-19 19h08.28.268156 +0800,
帮助,协助, f,0:06,0.0,0:03,八八,f,巴糖,0,13,13,274,,,,,0,1,1,2,,,,,157.90534900000785,,,,,,,,,,,157.89053249999415,157.90534900000785,,157.97344079997856,,,,,,,,,,,,,,,,,,,,,,,,,,,,,,,,,,,,,,,,,,,,,,,,,f, f,,727138,001,2024-12-19_19h08.17.689,AB,2024.1.5,None,2024-12-19 19h08.28.268156 +0800,
帮助,协助, f,0:06,0.0,0:03,八八,f,小借,0,13,13,274,,,,,0,2,2,3,,,,,157.9887281000847,,,,,,,,,,,157.97360560006928,157.9887281000847,,158.05648530006874,,,,,,,,,,,,,,,,,,,,,,,,,,,,,,,,,,,,,,,,,,,,,,,,,f, f,,727138,001,2024-12-19_19h08.17.689,AB,2024.1.5,None,2024-12-19 19h08.28.268156 +0800,
帮助,协助, f,0:06,0.0,0:03,八八,f,行第,0,13,13,274,,,,,0,3,3,0,,,,,158.07181400002446,,,,,,,,,,,158.05664490000345,158.07181400002446,,158.13998109998647,,,,,,,,,,,,,,,,,,,,,,,,,,,,,,,,,,,,,,,,,,,,,,,,,f, f,,727138,001,2024-12-19_19h08.17.689,AB,2024.1.5,None,2024-12-19 19h08.28.268156 +0800,
帮助,协助, f,0:06,0.0,0:03,八八,f,员尾,0,13,13,274,,,,,0,4,4,1,,,,,158.1553930999944,,,,,,,,,,,158.1401349999942,158.1553930999944,,158.22333020006772,,,,,,,,,,,,,,,,,,,,,,,,,,,,,,,,,,,,,,,,,,,,,,,,,f, f,,727138,001,2024-12-19_19h08.17.689,AB,2024.1.5,None,2024-12-19 19h08.28.268156 +0800,
帮助,协助, f,0:06,0.0,0:03,八八,f,行第,0,13,13,274,,,,,,,,,0,0,0,0,158.47204560006503,,,,,,,,,,,158.46260079997592,158.47204560006503,158.55539190000854,158.54036870005075,,,,158.2233851000201,158.23836449999362,158.30540750001092,158.32195240003057,158.38884380005766,158.38884380005766,158.47204560006503,158.45708239998203,,,,,,,,,,,,,,,,,,,,,,,,,,,,,,,,,,,,,,f, f,,727138,001,2024-12-19_19h08.17.689,AB,2024.1.5,None,2024-12-19 19h08.28.268156 +0800,
帮助,协助, f,0:06,0.0,0:03,八八,f,员尾,0,13,13,274,,,,,,,,,0,1,1,1,158.55539190000854,,,,,,,,,,,158.54053019999992,158.55539190000854,158.63883240008727,158.62533419998363,,,,,,,,,,,,,,,,,,,,,,,,,,,,,,,,,,,,,,,,,,,,,,,,,f, f,,727138,001,2024-12-19_19h08.17.689,AB,2024.1.5,None,2024-12-19 19h08.28.268156 +0800,
帮助,协助, f,0:06,0.0,0:03,八八,f,巴糖,0,13,13,274,,,,,,,,,0,2,2,2,158.63883240008727,,,,,,,,,,,158.62559000006877,158.63883240008727,158.7222657999955,158.70705259998795,,,,,,,,,,,,,,,,,,,,,,,,,,,,,,,,,,,,,,,,,,,,,,,,,f, f,,727138,001,2024-12-19_19h08.17.689,AB,2024.1.5,None,2024-12-19 19h08.28.268156 +0800,
帮助,协助, f,0:06,0.0,0:03,八八,f,小借,0,13,13,274,,,,,,,,,0,3,3,3,158.7222657999955,,,,,,,,,,,158.7072108000284,158.7222657999955,158.8054288000567,158.79090720007662,,,,,,,,,,,,,,,,,,,,,,,,,,,,,,,,,,,,,,,,,,,,,,,,,f, f,,727138,001,2024-12-19_19h08.17.689,AB,2024.1.5,None,2024-12-19 19h08.28.268156 +0800,
帮助,协助, f,0:06,0.0,0:03,八八,f,出亡,0,13,13,274,,,,,,,,,0,4,4,4,158.8054288000567,,,,,,,,,,,158.79107520007528,158.8054288000567,158.88848680001684,158.87380940001458,,,,,,,,,,,,,,,,,,,,,,,,,,,,,,,,,,,,,,,,,,,,,,,,,f, f,,727138,001,2024-12-19_19h08.17.689,AB,2024.1.5,None,2024-12-19 19h08.28.268156 +0800,
母鹿,鹿类, j,0:09,0.0,0:10,十十,j,出亡,0,14,14,289,,,,,0,0,0,4,,,,,169.82171100005507,,,,,166.87365449999925,166.88822940003593,167.88807750004344,167.88807750004344,168.8885292999912,168.87317200005054,169.81246190005913,169.82171100005507,169.90480820008088,169.8900641000364,169.62506190000568,169.7381397000281,169.80689930007793,,,,,,,,,158.87386619998142,158.88848680001684,159.88869430008344,159.88869430008344,159.88869430008344,161.88840649998747,161.88840649998747,161.88840649998747,162.88909519999288,162.87599880003836,None,0,162.8762524999911,162.88909519999288,163.8879301000852,163.8879301000852,163.8879301000852,165.88804130000062,165.88804130000062,165.88804130000062,166.88822940003593,166.8732880000025,None,0,帮助,协助,None,None,0,0,[],[],出亡,0.083,0.083,13,AB,j, j,169.82171100005507,727138,001,2024-12-19_19h08.17.689,AB,2024.1.5,None,2024-12-19 19h08.28.268156 +0800,
母鹿,鹿类, j,0:09,0.0,0:10,十十,j,员尾,0,14,14,289,,,,,0,1,1,1,,,,,169.90480820008088,,,,,,,,,,,169.8902341000503,169.90480820008088,169.98802649998106,169.97462890006136,,,,,,,,,,,,,,,,,,,,,,,,,,,,,,,,,,,,,,,,,,,,,,,,,j, j,,727138,001,2024-12-19_19h08.17.689,AB,2024.1.5,None,2024-12-19 19h08.28.268156 +0800,
母鹿,鹿类, j,0:09,0.0,0:10,十十,j,行第,0,14,14,289,,,,,0,2,2,0,,,,,169.98802649998106,,,,,,,,,,,169.9749305000296,169.98802649998106,170.0717055000132,170.05667000007816,,,,,,,,,,,,,,,,,,,,,,,,,,,,,,,,,,,,,,,,,,,,,,,,,j, j,,727138,001,2024-12-19_19h08.17.689,AB,2024.1.5,None,2024-12-19 19h08.28.268156 +0800,
母鹿,鹿类, j,0:09,0.0,0:10,十十,j,小借,0,14,14,289,,,,,0,3,3,3,,,,,170.0717055000132,,,,,,,,,,,170.05684279999696,170.0717055000132,170.15478009998333,170.13987319997977,,,,,,,,,,,,,,,,,,,,,,,,,,,,,,,,,,,,,,,,,,,,,,,,,j, j,,727138,001,2024-12-19_19h08.17.689,AB,2024.1.5,None,2024-12-19 19h08.28.268156 +0800,
母鹿,鹿类, j,0:09,0.0,0:10,十十,j,巴糖,0,14,14,289,,,,,0,4,4,2,,,,,170.15478009998333,,,,,,,,,,,170.1400415999815,170.15478009998333,170.23817450006027,170.2233784000855,,,,,,,,,,,,,,,,,,,,,,,,,,,,,,,,,,,,,,,,,,,,,,,,,j, j,,727138,001,2024-12-19_19h08.17.689,AB,2024.1.5,None,2024-12-19 19h08.28.268156 +0800,
母鹿,鹿类, j,0:09,0.0,0:10,十十,j,巴糖,0,14,14,289,,,,,,,,,0,0,0,2,170.48788120003883,,,,,,,,,,,170.47860430006403,170.48788120003883,170.57147690001875,170.55650990002323,,,,170.22343340003863,170.23817450006027,170.32138980005402,170.32138980005402,170.40464070008602,170.40464070008602,170.48788120003883,170.4732495000353,,,,,,,,,,,,,,,,,,,,,,,,,,,,,,,,,,,,,,j, j,,727138,001,2024-12-19_19h08.17.689,AB,2024.1.5,None,2024-12-19 19h08.28.268156 +0800,
母鹿,鹿类, j,0:09,0.0,0:10,十十,j,行第,0,14,14,289,,,,,,,,,0,1,1,0,170.57147690001875,,,,,,,,,,,170.55666800006293,170.57147690001875,170.65482850000262,170.63962340005673,,,,,,,,,,,,,,,,,,,,,,,,,,,,,,,,,,,,,,,,,,,,,,,,,j, j,,727138,001,2024-12-19_19h08.17.689,AB,2024.1.5,None,2024-12-19 19h08.28.268156 +0800,
母鹿,鹿类, j,0:09,0.0,0:10,十十,j,小借,0,14,14,289,,,,,,,,,0,2,2,3,170.65482850000262,,,,,,,,,,,170.63979569997173,170.65482850000262,170.73778299998958,170.72317730006762,,,,,,,,,,,,,,,,,,,,,,,,,,,,,,,,,,,,,,,,,,,,,,,,,j, j,,727138,001,2024-12-19_19h08.17.689,AB,2024.1.5,None,2024-12-19 19h08.28.268156 +0800,
母鹿,鹿类, j,0:09,0.0,0:10,十十,j,员尾,0,14,14,289,,,,,,,,,0,3,3,1,170.73778299998958,,,,,,,,,,,170.7233393000206,170.73778299998958,170.8214543000795,170.80644990003202,,,,,,,,,,,,,,,,,,,,,,,,,,,,,,,,,,,,,,,,,,,,,,,,,j, j,,727138,001,2024-12-19_19h08.17.689,AB,2024.1.5,None,2024-12-19 19h08.28.268156 +0800,
母鹿,鹿类, j,0:09,0.0,0:10,十十,j,出亡,0,14,14,289,,,,,,,,,0,4,4,4,170.8214543000795,,,,,,,,,,,170.80661470000632,170.8214543000795,170.90499499998987,170.89007329999004,,,,,,,,,,,,,,,,,,,,,,,,,,,,,,,,,,,,,,,,,,,,,,,,,j, j,,727138,001,2024-12-19_19h08.17.689,AB,2024.1.5,None,2024-12-19 19h08.28.268156 +0800,
雾气,薄雾, f,0:09,0.0,0:09,十十,j,行第,0,15,15,293,,,,,0,0,0,0,,,,,181.8371599999955,,,,,178.88981429999694,178.90410869999323,179.90425520006102,179.90425520006102,180.90423630003352,180.889163200045,181.82817630004138,181.8371599999955,181.92104300006758,181.90624400007073,181.63946560001932,181.75426910002716,181.82317990006413,,,,,,,,,170.89012640004512,170.90499499998987,171.90442889998667,171.90442889998667,171.90442889998667,173.90451520006172,173.90451520006172,173.90451520006172,174.904530000058,174.88948850007728,None,0,174.88960840005893,174.904530000058,175.90444920002483,175.90444920002483,175.90444920002483,177.90447660000063,177.90447660000063,177.90447660000063,178.90410869999323,178.88958900002763,None,0,母鹿,鹿类,None,None,0,0,[],[],出亡,0.083,0.083,14,AB,j, f,181.8371599999955,727138,001,2024-12-19_19h08.17.689,AB,2024.1.5,None,2024-12-19 19h08.28.268156 +0800,
雾气,薄雾, f,0:09,0.0,0:09,十十,j,小借,0,15,15,293,,,,,0,1,1,3,,,,,181.92104300006758,,,,,,,,,,,181.90641010005493,181.92104300006758,182.00415719999,181.98945240001194,,,,,,,,,,,,,,,,,,,,,,,,,,,,,,,,,,,,,,,,,,,,,,,,,j, f,,727138,001,2024-12-19_19h08.17.689,AB,2024.1.5,None,2024-12-19 19h08.28.268156 +0800,
雾气,薄雾, f,0:09,0.0,0:09,十十,j,巴糖,0,15,15,293,,,,,0,2,2,2,,,,,182.00415719999,,,,,,,,,,,181.98961849999614,182.00415719999,182.08772299997509,182.0724910000572,,,,,,,,,,,,,,,,,,,,,,,,,,,,,,,,,,,,,,,,,,,,,,,,,j, f,,727138,001,2024-12-19_19h08.17.689,AB,2024.1.5,None,2024-12-19 19h08.28.268156 +0800,
雾气,薄雾, f,0:09,0.0,0:09,十十,j,出亡,0,15,15,293,,,,,0,3,3,4,,,,,182.08772299997509,,,,,,,,,,,182.07265310001094,182.08772299997509,182.17106090008747,182.15590660006274,,,,,,,,,,,,,,,,,,,,,,,,,,,,,,,,,,,,,,,,,,,,,,,,,j, f,,727138,001,2024-12-19_19h08.17.689,AB,2024.1.5,None,2024-12-19 19h08.28.268156 +0800,
雾气,薄雾, f,0:09,0.0,0:09,十十,j,员尾,0,15,15,293,,,,,0,4,4,1,,,,,182.17106090008747,,,,,,,,,,,182.15606609999668,182.17106090008747,182.25401190004777,182.23946060007438,,,,,,,,,,,,,,,,,,,,,,,,,,,,,,,,,,,,,,,,,,,,,,,,,j, f,,727138,001,2024-12-19_19h08.17.689,AB,2024.1.5,None,2024-12-19 19h08.28.268156 +0800,
雾气,薄雾, f,0:09,0.0,0:09,十十,j,员尾,0,15,15,293,,,,,,,,,0,0,0,1,182.48760970006697,,,,,,,,,,,182.4784458000213,182.48760970006697,182.57117140002083,182.55622310005128,,,,182.2395167000359,182.25401190004777,182.33721320005134,182.33721320005134,182.42080399999395,182.40416719997302,182.48760970006697,182.47292860003654,,,,,,,,,,,,,,,,,,,,,,,,,,,,,,,,,,,,,,j, f,,727138,001,2024-12-19_19h08.17.689,AB,2024.1.5,None,2024-12-19 19h08.28.268156 +0800,
雾气,薄雾, f,0:09,0.0,0:09,十十,j,小借,0,15,15,293,,,,,,,,,0,1,1,3,182.57117140002083,,,,,,,,,,,182.5563868000172,182.57117140002083,182.653942200006,182.63954800006468,,,,,,,,,,,,,,,,,,,,,,,,,,,,,,,,,,,,,,,,,,,,,,,,,j, f,,727138,001,2024-12-19_19h08.17.689,AB,2024.1.5,None,2024-12-19 19h08.28.268156 +0800,
雾气,薄雾, f,0:09,0.0,0:09,十十,j,行第,0,15,15,293,,,,,,,,,0,2,2,0,182.653942200006,,,,,,,,,,,182.6397151000565,182.653942200006,182.73717330000363,182.72229730000254,,,,,,,,,,,,,,,,,,,,,,,,,,,,,,,,,,,,,,,,,,,,,,,,,j, f,,727138,001,2024-12-19_19h08.17.689,AB,2024.1.5,None,2024-12-19 19h08.28.268156 +0800,
雾气,薄雾, f,0:09,0.0,0:09,十十,j,出亡,0,15,15,293,,,,,,,,,0,3,3,4,182.73717330000363,,,,,,,,,,,182.72246860002633,182.73717330000363,182.82075579999946,182.80654210003559,,,,,,,,,,,,,,,,,,,,,,,,,,,,,,,,,,,,,,,,,,,,,,,,,j, f,,727138,001,2024-12-19_19h08.17.689,AB,2024.1.5,None,2024-12-19 19h08.28.268156 +0800,
雾气,薄雾, f,0:09,0.0,0:09,十十,j,巴糖,0,15,15,293,,,,,,,,,0,4,4,2,182.82075579999946,,,,,,,,,,,182.8067273000488,182.82075579999946,182.90409500000533,182.88926349999383,,,,,,,,,,,,,,,,,,,,,,,,,,,,,,,,,,,,,,,,,,,,,,,,,j, f,,727138,001,2024-12-19_19h08.17.689,AB,2024.1.5,None,2024-12-19 19h08.28.268156 +0800,
劳动,工作, f,0:09,0.0,0:07,三三,j,员尾,0,16,16,286,,,,,0,0,0,1,,,,,193.83715949999169,,,,,190.8890077000251,190.90415060007945,191.9034912000643,191.9034912000643,192.90390430006664,192.88951260002796,193.82790190004744,193.83715949999169,193.9204329000786,193.90531100006774,193.6389309000224,193.75345439999364,193.82236049999483,,,,,,,,,182.88932389998809,182.90409500000533,183.90416909998748,183.90416909998748,183.90416909998748,185.90367380005773,185.90367380005773,185.90367380005773,186.9039370000828,186.8895133000333,None,0,186.88964539999142,186.9039370000828,187.90395659999922,187.90395659999922,187.90395659999922,189.9038924999768,189.9038924999768,189.9038924999768,190.90415060007945,190.88878660008777,None,0,雾气,薄雾,None,None,0,0,[],[],巴糖,0.083,0.083,15,AB,j, f,193.83715949999169,727138,001,2024-12-19_19h08.17.689,AB,2024.1.5,None,2024-12-19 19h08.28.268156 +0800,
劳动,工作, f,0:09,0.0,0:07,三三,j,行第,0,16,16,286,,,,,0,1,1,0,,,,,193.9204329000786,,,,,,,,,,,193.90548120008316,193.9204329000786,194.00334779999685,193.99075140000787,,,,,,,,,,,,,,,,,,,,,,,,,,,,,,,,,,,,,,,,,,,,,,,,,j, f,,727138,001,2024-12-19_19h08.17.689,AB,2024.1.5,None,2024-12-19 19h08.28.268156 +0800,
劳动,工作, f,0:09,0.0,0:07,三三,j,出亡,0,16,16,286,,,,,0,2,2,4,,,,,194.00334779999685,,,,,,,,,,,193.99091910000425,194.00334779999685,194.08711149997544,194.07233260001522,,,,,,,,,,,,,,,,,,,,,,,,,,,,,,,,,,,,,,,,,,,,,,,,,j, f,,727138,001,2024-12-19_19h08.17.689,AB,2024.1.5,None,2024-12-19 19h08.28.268156 +0800,
劳动,工作, f,0:09,0.0,0:07,三三,j,巴糖,0,16,16,286,,,,,0,3,3,2,,,,,194.08711149997544,,,,,,,,,,,194.07249569997657,194.08711149997544,194.1704898000462,194.1556498000864,,,,,,,,,,,,,,,,,,,,,,,,,,,,,,,,,,,,,,,,,,,,,,,,,j, f,,727138,001,2024-12-19_19h08.17.689,AB,2024.1.5,None,2024-12-19 19h08.28.268156 +0800,
劳动,工作, f,0:09,0.0,0:07,三三,j,小借,0,16,16,286,,,,,0,4,4,3,,,,,194.1704898000462,,,,,,,,,,,194.15581420005765,194.1704898000462,194.25368990004063,194.2388692999957,,,,,,,,,,,,,,,,,,,,,,,,,,,,,,,,,,,,,,,,,,,,,,,,,j, f,,727138,001,2024-12-19_19h08.17.689,AB,2024.1.5,None,2024-12-19 19h08.28.268156 +0800,
劳动,工作, f,0:09,0.0,0:07,三三,j,行第,0,16,16,286,,,,,,,,,0,0,0,0,194.50385460001417,,,,,,,,,,,194.49415909999516,194.50385460001417,194.58736040000804,194.57196259999182,,,,194.23892050003633,194.25368990004063,194.33712669997476,194.33712669997476,194.4203440999845,194.4203440999845,194.50385460001417,194.48875570006203,,,,,,,,,,,,,,,,,,,,,,,,,,,,,,,,,,,,,,j, f,,727138,001,2024-12-19_19h08.17.689,AB,2024.1.5,None,2024-12-19 19h08.28.268156 +0800,
劳动,工作, f,0:09,0.0,0:07,三三,j,员尾,0,16,16,286,,,,,,,,,0,1,1,1,194.58736040000804,,,,,,,,,,,194.57211880001705,194.58736040000804,194.6706514999969,194.65570140001364,,,,,,,,,,,,,,,,,,,,,,,,,,,,,,,,,,,,,,,,,,,,,,,,,j, f,,727138,001,2024-12-19_19h08.17.689,AB,2024.1.5,None,2024-12-19 19h08.28.268156 +0800,
劳动,工作, f,0:09,0.0,0:07,三三,j,巴糖,0,16,16,286,,,,,,,,,0,2,2,2,194.6706514999969,,,,,,,,,,,194.65587350004353,194.6706514999969,194.75363260006998,194.73964080004953,,,,,,,,,,,,,,,,,,,,,,,,,,,,,,,,,,,,,,,,,,,,,,,,,j, f,,727138,001,2024-12-19_19h08.17.689,AB,2024.1.5,None,2024-12-19 19h08.28.268156 +0800,
劳动,工作, f,0:09,0.0,0:07,三三,j,出亡,0,16,16,286,,,,,,,,,0,3,3,4,194.75363260006998,,,,,,,,,,,194.73981900000945,194.75363260006998,194.83679810003377,194.82239260000642,,,,,,,,,,,,,,,,,,,,,,,,,,,,,,,,,,,,,,,,,,,,,,,,,j, f,,727138,001,2024-12-19_19h08.17.689,AB,2024.1.5,None,2024-12-19 19h08.28.268156 +0800,
劳动,工作, f,0:09,0.0,0:07,三三,j,小借,0,16,16,286,,,,,,,,,0,4,4,3,194.83679810003377,,,,,,,,,,,194.8225929000182,194.83679810003377,194.92047050001565,194.907956100069,,,,,,,,,,,,,,,,,,,,,,,,,,,,,,,,,,,,,,,,,,,,,,,,,j, f,,727138,001,2024-12-19_19h08.17.689,AB,2024.1.5,None,2024-12-19 19h08.28.268156 +0800,
咒语,诅咒, f,0:09,0.0,0:10,五五,j,出亡,0,17,17,252,,,,,0,0,0,4,,,,,205.8552421000786,,,,,202.9239690999966,202.93630320008378,203.92009969998617,203.9365940000862,204.91979810001794,204.90528840001207,205.846180499997,205.8552421000786,205.66992910008412,205.93825950007886,205.6552238999866,205.76971869997215,205.84016060002614,,,,,,,,,194.90804770006798,194.92047050001565,195.92031090008095,195.92031090008095,195.92031090008095,197.92007540003397,197.92007540003397,197.92007540003397,198.92084070004057,198.91107600007672,None,0,198.91169630002696,198.92084070004057,199.9219770000782,199.9219770000782,199.9219770000782,201.93747710005846,201.91957110003568,201.93747710005846,,202.9234592000721,None,0,劳动,工作,None,None,0,0,[],[],小借,0.083,0.083,16,AB,j, f,205.8552421000786,727138,001,2024-12-19_19h08.17.689,AB,2024.1.5,None,2024-12-19 19h08.28.268156 +0800,
咒语,诅咒, f,0:09,0.0,0:10,五五,j,小借,0,17,17,252,,,,,0,1,1,3,,,,,205.95338249998167,,,,,,,,,,,205.93843420001213,205.95338249998167,,206.02099650003947,,,,,,,,,,,,,,,,,,,,,,,,,,,,,,,,,,,,,,,,,,,,,,,,,j, f,,727138,001,2024-12-19_19h08.17.689,AB,2024.1.5,None,2024-12-19 19h08.28.268156 +0800,
咒语,诅咒, f,0:09,0.0,0:10,五五,j,员尾,0,17,17,252,,,,,0,2,2,1,,,,,206.03619150002487,,,,,,,,,,,206.02117329998873,206.03619150002487,,206.10492820001673,,,,,,,,,,,,,,,,,,,,,,,,,,,,,,,,,,,,,,,,,,,,,,,,,j, f,,727138,001,2024-12-19_19h08.17.689,AB,2024.1.5,None,2024-12-19 19h08.28.268156 +0800,
咒语,诅咒, f,0:09,0.0,0:10,五五,j,行第,0,17,17,252,,,,,0,3,3,0,,,,,206.12013739999384,,,,,,,,,,,206.10509480000474,206.12013739999384,,206.18973790004384,,,,,,,,,,,,,,,,,,,,,,,,,,,,,,,,,,,,,,,,,,,,,,,,,j, f,,727138,001,2024-12-19_19h08.17.689,AB,2024.1.5,None,2024-12-19 19h08.28.268156 +0800,
咒语,诅咒, f,0:09,0.0,0:10,五五,j,巴糖,0,17,17,252,,,,,0,4,4,2,,,,,206.20292130007874,,,,,,,,,,,206.1899059000425,206.20292130007874,,206.27125300001353,,,,,,,,,,,,,,,,,,,,,,,,,,,,,,,,,,,,,,,,,,,,,,,,,j, f,,727138,001,2024-12-19_19h08.17.689,AB,2024.1.5,None,2024-12-19 19h08.28.268156 +0800,
咒语,诅咒, f,0:09,0.0,0:10,五五,j,出亡,0,17,17,252,,,,,,,,,0,0,0,4,206.5199672000017,,,,,,,,,,,206.5113555000862,206.5199672000017,206.60330800001975,206.5887695000274,,,,206.27130710007623,206.28642880008556,206.35320580005646,206.36987010005396,206.43628110003192,206.43628110003192,206.5199672000017,206.50525430007838,,,,,,,,,,,,,,,,,,,,,,,,,,,,,,,,,,,,,,j, f,,727138,001,2024-12-19_19h08.17.689,AB,2024.1.5,None,2024-12-19 19h08.28.268156 +0800,
咒语,诅咒, f,0:09,0.0,0:10,五五,j,行第,0,17,17,252,,,,,,,,,0,1,1,0,206.60330800001975,,,,,,,,,,,206.58894629997667,206.60330800001975,206.68668280006386,206.6726049000863,,,,,,,,,,,,,,,,,,,,,,,,,,,,,,,,,,,,,,,,,,,,,,,,,j, f,,727138,001,2024-12-19_19h08.17.689,AB,2024.1.5,None,2024-12-19 19h08.28.268156 +0800,
咒语,诅咒, f,0:09,0.0,0:10,五五,j,员尾,0,17,17,252,,,,,,,,,0,2,2,1,206.68668280006386,,,,,,,,,,,206.6727839000523,206.68668280006386,206.7699918000726,206.75519439997151,,,,,,,,,,,,,,,,,,,,,,,,,,,,,,,,,,,,,,,,,,,,,,,,,j, f,,727138,001,2024-12-19_19h08.17.689,AB,2024.1.5,None,2024-12-19 19h08.28.268156 +0800,
咒语,诅咒, f,0:09,0.0,0:10,五五,j,巴糖,0,17,17,252,,,,,,,,,0,3,3,2,206.7699918000726,,,,,,,,,,,206.7553638999816,206.7699918000726,206.8531807999825,206.83843880007043,,,,,,,,,,,,,,,,,,,,,,,,,,,,,,,,,,,,,,,,,,,,,,,,,j, f,,727138,001,2024-12-19_19h08.17.689,AB,2024.1.5,None,2024-12-19 19h08.28.268156 +0800,
咒语,诅咒, f,0:09,0.0,0:10,五五,j,小借,0,17,17,252,,,,,,,,,0,4,4,3,206.8531807999825,,,,,,,,,,,206.838609599974,206.8531807999825,206.93623940006364,206.92125220003072,,,,,,,,,,,,,,,,,,,,,,,,,,,,,,,,,,,,,,,,,,,,,,,,,j, f,,727138,001,2024-12-19_19h08.17.689,AB,2024.1.5,None,2024-12-19 19h08.28.268156 +0800,
矮人,侏儒, f,0:06,0:02,0:07,二二,f,小借,0,18,18,334,,,,,0,0,0,3,,,,,217.60244100005366,,,,,214.92149119998794,214.9358755000867,215.93606039998122,215.93606039998122,216.93665609997697,216.92227219999768,217.59367440000642,217.60244100005366,217.68600860005245,217.67106369999237,217.42068430001382,217.51987159997225,217.58806480001658,,,,,,,,,206.92130950000137,206.93623940006364,207.93634060001932,207.93634060001932,207.93634060001932,209.9365046999883,209.92185210005846,209.9365046999883,,210.92189250001684,None,0,210.92203740007244,210.93637850007508,211.9366480000317,211.9366480000317,211.9366480000317,213.9359911000356,213.9359911000356,213.9359911000356,214.9358755000867,214.92124110006262,None,0,咒语,诅咒,None,None,0,0,[],[],小借,0.083,0.083,17,AB,f, f,217.60244100005366,727138,001,2024-12-19_19h08.17.689,AB,2024.1.5,None,2024-12-19 19h08.28.268156 +0800,
矮人,侏儒, f,0:06,0:02,0:07,二二,f,员尾,0,18,18,334,,,,,0,1,1,1,,,,,217.68600860005245,,,,,,,,,,,217.6712375000352,217.68600860005245,217.76949460001197,217.75531919999048,,,,,,,,,,,,,,,,,,,,,,,,,,,,,,,,,,,,,,,,,,,,,,,,,f, f,,727138,001,2024-12-19_19h08.17.689,AB,2024.1.5,None,2024-12-19 19h08.28.268156 +0800,
矮人,侏儒, f,0:06,0:02,0:07,二二,f,出亡,0,18,18,334,,,,,0,2,2,4,,,,,217.76949460001197,,,,,,,,,,,217.75549420004245,217.76949460001197,217.85236010001972,217.8378751000855,,,,,,,,,,,,,,,,,,,,,,,,,,,,,,,,,,,,,,,,,,,,,,,,,f, f,,727138,001,2024-12-19_19h08.17.689,AB,2024.1.5,None,2024-12-19 19h08.28.268156 +0800,
矮人,侏儒, f,0:06,0:02,0:07,二二,f,行第,0,18,18,334,,,,,0,3,3,0,,,,,217.85236010001972,,,,,,,,,,,217.8380500000203,217.85236010001972,217.93564719997812,217.9211986999726,,,,,,,,,,,,,,,,,,,,,,,,,,,,,,,,,,,,,,,,,,,,,,,,,f, f,,727138,001,2024-12-19_19h08.17.689,AB,2024.1.5,None,2024-12-19 19h08.28.268156 +0800,
矮人,侏儒, f,0:06,0:02,0:07,二二,f,巴糖,0,18,18,334,,,,,0,4,4,2,,,,,217.93564719997812,,,,,,,,,,,217.92149350000545,217.93564719997812,218.01948400004767,218.00476170005277,,,,,,,,,,,,,,,,,,,,,,,,,,,,,,,,,,,,,,,,,,,,,,,,,f, f,,727138,001,2024-12-19_19h08.17.689,AB,2024.1.5,None,2024-12-19 19h08.28.268156 +0800,
矮人,侏儒, f,0:06,0:02,0:07,二二,f,员尾,0,18,18,334,,,,,,,,,0,0,0,1,218.2858874000376,,,,,,,,,,,218.26833710004576,218.2858874000376,,218.356069499976,,,,218.00484469998628,218.01948400004767,218.10257160000037,218.10257160000037,218.18602690007538,218.18602690007538,218.2858874000376,218.25731800007634,,,,,,,,,,,,,,,,,,,,,,,,,,,,,,,,,,,,,,f, f,,727138,001,2024-12-19_19h08.17.689,AB,2024.1.5,None,2024-12-19 19h08.28.268156 +0800,
矮人,侏儒, f,0:06,0:02,0:07,二二,f,小借,0,18,18,334,,,,,,,,,0,1,1,3,218.36909260007087,,,,,,,,,,,218.35637350007892,218.36909260007087,,218.43967550003435,,,,,,,,,,,,,,,,,,,,,,,,,,,,,,,,,,,,,,,,,,,,,,,,,f, f,,727138,001,2024-12-19_19h08.17.689,AB,2024.1.5,None,2024-12-19 19h08.28.268156 +0800,
矮人,侏儒, f,0:06,0:02,0:07,二二,f,出亡,0,18,18,334,,,,,,,,,0,2,2,4,218.4525553000858,,,,,,,,,,,218.43999740004074,218.4525553000858,,218.52103300008457,,,,,,,,,,,,,,,,,,,,,,,,,,,,,,,,,,,,,,,,,,,,,,,,,f, f,,727138,001,2024-12-19_19h08.17.689,AB,2024.1.5,None,2024-12-19 19h08.28.268156 +0800,
矮人,侏儒, f,0:06,0:02,0:07,二二,f,巴糖,0,18,18,334,,,,,,,,,0,3,3,2,218.53615050006192,,,,,,,,,,,218.52122009999584,218.53615050006192,,218.60504440008663,,,,,,,,,,,,,,,,,,,,,,,,,,,,,,,,,,,,,,,,,,,,,,,,,f, f,,727138,001,2024-12-19_19h08.17.689,AB,2024.1.5,None,2024-12-19 19h08.28.268156 +0800,
矮人,侏儒, f,0:06,0:02,0:07,二二,f,行第,0,18,18,334,,,,,,,,,0,4,4,0,218.61972229997627,,,,,,,,,,,218.6052333000116,218.61972229997627,,218.6877723999787,,,,,,,,,,,,,,,,,,,,,,,,,,,,,,,,,,,,,,,,,,,,,,,,,f, f,,727138,001,2024-12-19_19h08.17.689,AB,2024.1.5,None,2024-12-19 19h08.28.268156 +0800,
宝石,珠宝, f,0:09,0:02,0:12,二二,j,员尾,0,19,19,50,,,,,0,0,0,1,,,,,229.61903439997695,,,,,226.67163480003364,226.6856589000672,227.68562510004267,227.68562510004267,228.6855676000705,228.67080870002974,229.61000740004238,229.61903439997695,229.7022143000504,229.6875655000331,229.4365311000729,229.53529690008145,229.60426270007156,,,,,,,,,218.68783499998972,218.70327830000315,219.70291820005514,219.68596200004686,219.68596200004686,221.68602250004187,221.68602250004187,221.68602250004187,222.68636400008108,222.6741854000138,None,0,222.67447410000023,222.68636400008108,223.68546599999536,223.68546599999536,223.68546599999536,225.6857253999915,225.6857253999915,225.6857253999915,226.6856589000672,226.67139440006576,None,0,矮人,侏儒,None,None,0,0,[],[],行第,0.083,0.083,18,AB,j, f,229.61903439997695,727138,001,2024-12-19_19h08.17.689,AB,2024.1.5,None,2024-12-19 19h08.28.268156 +0800,
宝石,珠宝, f,0:09,0:02,0:12,二二,j,出亡,0,19,19,50,,,,,0,1,1,4,,,,,229.7022143000504,,,,,,,,,,,229.68773950007744,229.7022143000504,229.7854084999999,229.77122350002173,,,,,,,,,,,,,,,,,,,,,,,,,,,,,,,,,,,,,,,,,,,,,,,,,j, f,,727138,001,2024-12-19_19h08.17.689,AB,2024.1.5,None,2024-12-19 19h08.28.268156 +0800,
宝石,珠宝, f,0:09,0:02,0:12,二二,j,小借,0,19,19,50,,,,,0,2,2,3,,,,,229.7854084999999,,,,,,,,,,,229.7714267000556,229.7854084999999,229.87030730000697,229.8542305000592,,,,,,,,,,,,,,,,,,,,,,,,,,,,,,,,,,,,,,,,,,,,,,,,,j, f,,727138,001,2024-12-19_19h08.17.689,AB,2024.1.5,None,2024-12-19 19h08.28.268156 +0800,
宝石,珠宝, f,0:09,0:02,0:12,二二,j,行第,0,19,19,50,,,,,0,3,3,0,,,,,229.87030730000697,,,,,,,,,,,229.85439820005558,229.87030730000697,229.9518706999952,229.9378912000684,,,,,,,,,,,,,,,,,,,,,,,,,,,,,,,,,,,,,,,,,,,,,,,,,j, f,,727138,001,2024-12-19_19h08.17.689,AB,2024.1.5,None,2024-12-19 19h08.28.268156 +0800,
宝石,珠宝, f,0:09,0:02,0:12,二二,j,巴糖,0,19,19,50,,,,,0,4,4,2,,,,,229.9518706999952,,,,,,,,,,,229.93806960002985,229.9518706999952,230.03565109998453,230.0207856000634,,,,,,,,,,,,,,,,,,,,,,,,,,,,,,,,,,,,,,,,,,,,,,,,,j, f,,727138,001,2024-12-19_19h08.17.689,AB,2024.1.5,None,2024-12-19 19h08.28.268156 +0800,
宝石,珠宝, f,0:09,0:02,0:12,二二,j,行第,0,19,19,50,,,,,,,,,0,0,0,0,230.28562940005213,,,,,,,,,,,230.27644140005577,230.28562940005213,230.36899960006122,230.35406120005064,,,,230.02085029997397,230.03565109998453,230.1189449999947,230.1189449999947,230.20220699999481,230.20220699999481,230.28562940005213,230.27065339998808,,,,,,,,,,,,,,,,,,,,,,,,,,,,,,,,,,,,,,j, f,,727138,001,2024-12-19_19h08.17.689,AB,2024.1.5,None,2024-12-19 19h08.28.268156 +0800,
宝石,珠宝, f,0:09,0:02,0:12,二二,j,小借,0,19,19,50,,,,,,,,,0,1,1,3,230.36899960006122,,,,,,,,,,,230.35438809997868,230.36899960006122,230.45212859997991,230.4381176000461,,,,,,,,,,,,,,,,,,,,,,,,,,,,,,,,,,,,,,,,,,,,,,,,,j, f,,727138,001,2024-12-19_19h08.17.689,AB,2024.1.5,None,2024-12-19 19h08.28.268156 +0800,
宝石,珠宝, f,0:09,0:02,0:12,二二,j,出亡,0,19,19,50,,,,,,,,,0,2,2,4,230.45212859997991,,,,,,,,,,,230.4382894000737,230.45212859997991,230.53556240000762,230.52073920005932,,,,,,,,,,,,,,,,,,,,,,,,,,,,,,,,,,,,,,,,,,,,,,,,,j, f,,727138,001,2024-12-19_19h08.17.689,AB,2024.1.5,None,2024-12-19 19h08.28.268156 +0800,
宝石,珠宝, f,0:09,0:02,0:12,二二,j,员尾,0,19,19,50,,,,,,,,,0,3,3,1,230.53556240000762,,,,,,,,,,,230.5209095000755,230.53556240000762,230.6184830000857,230.60450740007218,,,,,,,,,,,,,,,,,,,,,,,,,,,,,,,,,,,,,,,,,,,,,,,,,j, f,,727138,001,2024-12-19_19h08.17.689,AB,2024.1.5,None,2024-12-19 19h08.28.268156 +0800,
宝石,珠宝, f,0:09,0:02,0:12,二二,j,巴糖,0,19,19,50,,,,,,,,,0,4,4,2,230.6184830000857,,,,,,,,,,,230.60471230000257,230.6184830000857,230.70216920005623,230.68780690000858,,,,,,,,,,,,,,,,,,,,,,,,,,,,,,,,,,,,,,,,,,,,,,,,,j, f,,727138,001,2024-12-19_19h08.17.689,AB,2024.1.5,None,2024-12-19 19h08.28.268156 +0800,
钉子,锤子, j,0:09,0:06,0:12,十十,f,巴糖,0,20,20,313,,,,,0,0,0,2,,,,,241.6515690999804,,,,,238.69020030007232,238.70189210004173,239.70175760006532,239.70175760006532,240.702181700035,240.6873484000098,241.6321455000434,241.6515690999804,241.36843500006944,241.7055943000596,241.43854150001425,241.55235730006825,241.62064780003857,,,,,,,,,230.68798190006055,230.70216920005623,231.70226260006893,231.70226260006893,231.70226260006893,233.70196400000714,233.70196400000714,233.70196400000714,,234.69101339997724,None,0,234.69132980005816,234.70258809998631,235.70171330007724,235.70171330007724,235.70171330007724,237.70177789998706,237.70177789998706,237.70177789998706,238.70189210004173,238.68970550002996,None,0,宝石,珠宝,None,None,0,0,[],[],巴糖,0.083,0.083,19,AB,f, j,241.6515690999804,727138,001,2024-12-19_19h08.17.689,AB,2024.1.5,None,2024-12-19 19h08.28.268156 +0800,
钉子,锤子, j,0:09,0:06,0:12,十十,f,小借,0,20,20,313,,,,,0,1,1,3,,,,,241.7184520000592,,,,,,,,,,,241.70587359997444,241.7184520000592,,241.78978680004366,,,,,,,,,,,,,,,,,,,,,,,,,,,,,,,,,,,,,,,,,,,,,,,,,f, j,,727138,001,2024-12-19_19h08.17.689,AB,2024.1.5,None,2024-12-19 19h08.28.268156 +0800,
钉子,锤子, j,0:09,0:06,0:12,十十,f,行第,0,20,20,313,,,,,0,2,2,0,,,,,241.81026860000566,,,,,,,,,,,241.79007970006205,241.81026860000566,,241.87007970002014,,,,,,,,,,,,,,,,,,,,,,,,,,,,,,,,,,,,,,,,,,,,,,,,,f, j,,727138,001,2024-12-19_19h08.17.689,AB,2024.1.5,None,2024-12-19 19h08.28.268156 +0800,
钉子,锤子, j,0:09,0:06,0:12,十十,f,出亡,0,20,20,313,,,,,0,3,3,4,,,,,241.88481140008662,,,,,,,,,,,241.87025610008277,241.88481140008662,,241.954143900075,,,,,,,,,,,,,,,,,,,,,,,,,,,,,,,,,,,,,,,,,,,,,,,,,f, j,,727138,001,2024-12-19_19h08.17.689,AB,2024.1.5,None,2024-12-19 19h08.28.268156 +0800,
钉子,锤子, j,0:09,0:06,0:12,十十,f,员尾,0,20,20,313,,,,,0,4,4,1,,,,,241.96893400000408,,,,,,,,,,,241.9543356000213,241.96893400000408,,242.0373218000168,,,,,,,,,,,,,,,,,,,,,,,,,,,,,,,,,,,,,,,,,,,,,,,,,f, j,,727138,001,2024-12-19_19h08.17.689,AB,2024.1.5,None,2024-12-19 19h08.28.268156 +0800,
钉子,锤子, j,0:09,0:06,0:12,十十,f,巴糖,0,20,20,313,,,,,,,,,0,0,0,2,242.30245000007562,,,,,,,,,,,242.2850858999882,242.30245000007562,,242.37107730004936,,,,242.03738670004532,242.05149240000173,242.11860849999357,242.1355752000818,242.2028060000157,242.2028060000157,242.30245000007562,242.27332670008764,,,,,,,,,,,,,,,,,,,,,,,,,,,,,,,,,,,,,,f, j,,727138,001,2024-12-19_19h08.17.689,AB,2024.1.5,None,2024-12-19 19h08.28.268156 +0800,
钉子,锤子, j,0:09,0:06,0:12,十十,f,小借,0,20,20,313,,,,,,,,,0,1,1,3,242.38500710006338,,,,,,,,,,,242.37124650005717,242.38500710006338,,242.45307530008722,,,,,,,,,,,,,,,,,,,,,,,,,,,,,,,,,,,,,,,,,,,,,,,,,f, j,,727138,001,2024-12-19_19h08.17.689,AB,2024.1.5,None,2024-12-19 19h08.28.268156 +0800,
钉子,锤子, j,0:09,0:06,0:12,十十,f,出亡,0,20,20,313,,,,,,,,,0,2,2,4,242.4688059000764,,,,,,,,,,,242.45326310000382,242.4688059000764,,242.53728649998084,,,,,,,,,,,,,,,,,,,,,,,,,,,,,,,,,,,,,,,,,,,,,,,,,f, j,,727138,001,2024-12-19_19h08.17.689,AB,2024.1.5,None,2024-12-19 19h08.28.268156 +0800,
钉子,锤子, j,0:09,0:06,0:12,十十,f,员尾,0,20,20,313,,,,,,,,,0,3,3,1,242.5516198000405,,,,,,,,,,,242.5374875999987,242.5516198000405,,242.6199776000576,,,,,,,,,,,,,,,,,,,,,,,,,,,,,,,,,,,,,,,,,,,,,,,,,f, j,,727138,001,2024-12-19_19h08.17.689,AB,2024.1.5,None,2024-12-19 19h08.28.268156 +0800,
钉子,锤子, j,0:09,0:06,0:12,十十,f,行第,0,20,20,313,,,,,,,,,0,4,4,0,242.63608580001164,,,,,,,,,,,242.6201514999848,242.63608580001164,,242.70422990003135,,,,,,,,,,,,,,,,,,,,,,,,,,,,,,,,,,,,,,,,,,,,,,,,,f, j,,727138,001,2024-12-19_19h08.17.689,AB,2024.1.5,None,2024-12-19 19h08.28.268156 +0800,
我方,你方, j,0:09,0:02,0:10,二二,f,巴糖,0,21,21,68,,,,,0,0,0,2,,,,,253.6684296000749,,,,,250.68701520003378,250.7009842999978,251.7020212999778,251.7020212999778,252.73461980000138,252.69161760003772,253.6467841999838,253.6684296000749,,253.72077989997342,253.46134650008753,253.55187530000694,253.62612979998812,,,,,,,,,242.70428619999439,242.71841480000876,243.71809209999628,243.70190650003497,243.70190650003497,245.7034055000404,245.7034055000404,245.7034055000404,,246.70355910004582,None,0,246.70369640004355,246.71886909997556,247.71810130006634,247.7021367000416,247.7021367000416,249.7013090000255,249.7013090000255,249.7013090000255,250.7009842999978,250.68676130007952,None,0,钉子,锤子,None,None,0,0,[],[],行第,0.083,0.083,20,AB,f, j,253.6684296000749,727138,001,2024-12-19_19h08.17.689,AB,2024.1.5,None,2024-12-19 19h08.28.268156 +0800,
我方,你方, j,0:09,0:02,0:10,二二,f,员尾,0,21,21,68,,,,,0,1,1,1,,,,,253.73471710004378,,,,,,,,,,,253.72104530001525,253.73471710004378,,253.8071992000332,,,,,,,,,,,,,,,,,,,,,,,,,,,,,,,,,,,,,,,,,,,,,,,,,f, j,,727138,001,2024-12-19_19h08.17.689,AB,2024.1.5,None,2024-12-19 19h08.28.268156 +0800,
我方,你方, j,0:09,0:02,0:10,二二,f,行第,0,21,21,68,,,,,0,2,2,0,,,,,253.8186352000339,,,,,,,,,,,253.8076036000857,253.8186352000339,,253.88982050004415,,,,,,,,,,,,,,,,,,,,,,,,,,,,,,,,,,,,,,,,,,,,,,,,,f, j,,727138,001,2024-12-19_19h08.17.689,AB,2024.1.5,None,2024-12-19 19h08.28.268156 +0800,
我方,你方, j,0:09,0:02,0:10,二二,f,出亡,0,21,21,68,,,,,0,3,3,4,,,,,253.90116000000853,,,,,,,,,,,253.89028639998287,253.90116000000853,,253.97243199998047,,,,,,,,,,,,,,,,,,,,,,,,,,,,,,,,,,,,,,,,,,,,,,,,,f, j,,727138,001,2024-12-19_19h08.17.689,AB,2024.1.5,None,2024-12-19 19h08.28.268156 +0800,
我方,你方, j,0:09,0:02,0:10,二二,f,小借,0,21,21,68,,,,,0,4,4,3,,,,,253.98483430000488,,,,,,,,,,,253.97282510006335,253.98483430000488,,254.0571206000168,,,,,,,,,,,,,,,,,,,,,,,,,,,,,,,,,,,,,,,,,,,,,,,,,f, j,,727138,001,2024-12-19_19h08.17.689,AB,2024.1.5,None,2024-12-19 19h08.28.268156 +0800,
我方,你方, j,0:09,0:02,0:10,二二,f,小借,0,21,21,68,,,,,,,,,0,0,0,3,254.31956980004907,,,,,,,,,,,254.3094102999894,254.31956980004907,,254.39044410001952,,,,254.05726690008305,254.08498140005395,254.13517740007956,254.16790170001332,254.2184883999871,254.2184883999871,254.31956980004907,254.29211949999444,,,,,,,,,,,,,,,,,,,,,,,,,,,,,,,,,,,,,,f, j,,727138,001,2024-12-19_19h08.17.689,AB,2024.1.5,None,2024-12-19 19h08.28.268156 +0800,
我方,你方, j,0:09,0:02,0:10,二二,f,行第,0,21,21,68,,,,,,,,,0,1,1,0,254.40115480008535,,,,,,,,,,,254.39084800006822,254.40115480008535,,254.47354749997612,,,,,,,,,,,,,,,,,,,,,,,,,,,,,,,,,,,,,,,,,,,,,,,,,f, j,,727138,001,2024-12-19_19h08.17.689,AB,2024.1.5,None,2024-12-19 19h08.28.268156 +0800,
我方,你方, j,0:09,0:02,0:10,二二,f,巴糖,0,21,21,68,,,,,,,,,0,2,2,2,254.48491009999998,,,,,,,,,,,254.47394950001035,254.48491009999998,,254.5541734000435,,,,,,,,,,,,,,,,,,,,,,,,,,,,,,,,,,,,,,,,,,,,,,,,,f, j,,727138,001,2024-12-19_19h08.17.689,AB,2024.1.5,None,2024-12-19 19h08.28.268156 +0800,
我方,你方, j,0:09,0:02,0:10,二二,f,出亡,0,21,21,68,,,,,,,,,0,3,3,4,254.5679201000603,,,,,,,,,,,254.55442649999168,254.5679201000603,,254.6395283000311,,,,,,,,,,,,,,,,,,,,,,,,,,,,,,,,,,,,,,,,,,,,,,,,,f, j,,727138,001,2024-12-19_19h08.17.689,AB,2024.1.5,None,2024-12-19 19h08.28.268156 +0800,
我方,你方, j,0:09,0:02,0:10,二二,f,员尾,0,21,21,68,,,,,,,,,0,4,4,1,254.65093310002703,,,,,,,,,,,254.63992340001278,254.65093310002703,,254.72103020001668,,,,,,,,,,,,,,,,,,,,,,,,,,,,,,,,,,,,,,,,,,,,,,,,,f, j,,727138,001,2024-12-19_19h08.17.689,AB,2024.1.5,None,2024-12-19 19h08.28.268156 +0800,
希腊,拉丁, j,0:06,0:06,0:10,九九,f,小借,0,22,22,322,,,,,0,0,0,3,,,,,265.4340310000116,,,,,262.71956930006854,262.7338856999995,263.71752890001517,263.7345745000057,264.75094350008294,264.70886630006135,265.4140754999826,265.4340310000116,,265.492458700086,265.21035040006973,265.31823400000576,265.3932236999972,,,,,,,,,254.72111829998903,254.73482870007865,255.73456510005053,255.7177469000453,255.7177469000453,257.71765620005317,257.71765620005317,257.71765620005317,258.7175098999869,258.7061609000666,None,0,258.7064685000805,258.7175098999869,259.71922930004075,259.71922930004075,259.71922930004075,261.7187665000092,261.7187665000092,261.7187665000092,,262.7192489000736,None,0,我方,你方,None,None,0,0,[],[],员尾,0.083,0.083,21,AB,f, j,,727138,001,2024-12-19_19h08.17.689,AB,2024.1.5,None,2024-12-19 19h08.28.268156 +0800,
希腊,拉丁, j,0:06,0:06,0:10,九九,f,出亡,0,22,22,322,,,,,0,1,1,4,,,,,265.5024333000183,,,,,,,,,,,265.4928817000473,265.5024333000183,,265.5692429000046,,,,,,,,,,,,,,,,,,,,,,,,,,,,,,,,,,,,,,,,,,,,,,,,,f, j,,727138,001,2024-12-19_19h08.17.689,AB,2024.1.5,None,2024-12-19 19h08.28.268156 +0800,
希腊,拉丁, j,0:06,0:06,0:10,九九,f,行第,0,22,22,322,,,,,0,2,2,0,,,,,265.58385180006735,,,,,,,,,,,265.56946170004085,265.58385180006735,,265.63902670005336,,,,,,,,,,,,,,,,,,,,,,,,,,,,,,,,,,,,,,,,,,,,,,,,,f, j,,727138,001,2024-12-19_19h08.17.689,AB,2024.1.5,None,2024-12-19 19h08.28.268156 +0800,
希腊,拉丁, j,0:06,0:06,0:10,九九,f,员尾,0,22,22,322,,,,,0,3,3,1,,,,,265.65061220002826,,,,,,,,,,,265.639354199986,265.65061220002826,265.7337225000374,265.7193242000649,,,,,,,,,,,,,,,,,,,,,,,,,,,,,,,,,,,,,,,,,,,,,,,,,f, j,,727138,001,2024-12-19_19h08.17.689,AB,2024.1.5,None,2024-12-19 19h08.28.268156 +0800,
希腊,拉丁, j,0:06,0:06,0:10,九九,f,巴糖,0,22,22,322,,,,,0,4,4,2,,,,,265.7337225000374,,,,,,,,,,,265.7195308000082,265.7337225000374,265.81693910004105,265.8027515000431,,,,,,,,,,,,,,,,,,,,,,,,,,,,,,,,,,,,,,,,,,,,,,,,,f, j,,727138,001,2024-12-19_19h08.17.689,AB,2024.1.5,None,2024-12-19 19h08.28.268156 +0800,
希腊,拉丁, j,0:06,0:06,0:10,九九,f,小借,0,22,22,322,,,,,,,,,0,0,0,3,266.0672069999855,,,,,,,,,,,266.0602933000773,266.0672069999855,266.15039520000573,266.13614970003255,,,,265.80282219999935,265.81693910004105,265.9007365000434,265.9007365000434,265.9837704000529,265.9837704000529,266.0672069999855,266.0526583000319,,,,,,,,,,,,,,,,,,,,,,,,,,,,,,,,,,,,,,f, j,,727138,001,2024-12-19_19h08.17.689,AB,2024.1.5,None,2024-12-19 19h08.28.268156 +0800,
希腊,拉丁, j,0:06,0:06,0:10,九九,f,巴糖,0,22,22,322,,,,,,,,,0,1,1,2,266.15039520000573,,,,,,,,,,,266.136347200023,266.15039520000573,266.23466960003134,266.21924870007206,,,,,,,,,,,,,,,,,,,,,,,,,,,,,,,,,,,,,,,,,,,,,,,,,f, j,,727138,001,2024-12-19_19h08.17.689,AB,2024.1.5,None,2024-12-19 19h08.28.268156 +0800,
希腊,拉丁, j,0:06,0:06,0:10,九九,f,员尾,0,22,22,322,,,,,,,,,0,2,2,1,266.23466960003134,,,,,,,,,,,266.2194449000526,266.23466960003134,,266.3045434000669,,,,,,,,,,,,,,,,,,,,,,,,,,,,,,,,,,,,,,,,,,,,,,,,,f, j,,727138,001,2024-12-19_19h08.17.689,AB,2024.1.5,None,2024-12-19 19h08.28.268156 +0800,
希腊,拉丁, j,0:06,0:06,0:10,九九,f,出亡,0,22,22,322,,,,,,,,,0,3,3,4,266.31705529999454,,,,,,,,,,,266.30506330006756,266.31705529999454,,266.38546820008196,,,,,,,,,,,,,,,,,,,,,,,,,,,,,,,,,,,,,,,,,,,,,,,,,f, j,,727138,001,2024-12-19_19h08.17.689,AB,2024.1.5,None,2024-12-19 19h08.28.268156 +0800,
希腊,拉丁, j,0:06,0:06,0:10,九九,f,行第,0,22,22,322,,,,,,,,,0,4,4,0,266.4008373999968,,,,,,,,,,,266.38562860002276,266.4008373999968,,266.46896800003015,,,,,,,,,,,,,,,,,,,,,,,,,,,,,,,,,,,,,,,,,,,,,,,,,f, j,,727138,001,2024-12-19_19h08.17.689,AB,2024.1.5,None,2024-12-19 19h08.28.268156 +0800,
雪茄,烟斗, j,0:06,0:06,0:07,一一,f,出亡,0,23,23,306,,,,,0,0,0,4,,,,,277.1871518000262,,,,,274.46875840006396,274.48309500003234,275.46726529998705,275.48456380004063,276.48478469997644,276.45686110004317,277.1594711000798,277.1871518000262,,277.24167460005265,276.96956880006474,277.06891190004535,277.1424064000603,,,,,,,,,266.4690244999947,266.4838563000085,267.48374280007556,267.48374280007556,267.48374280007556,269.48405299999285,269.46875120000914,269.48405299999285,,270.47081109997816,None,0,270.4710814000573,270.4840865000151,271.4835745000746,271.4835745000746,271.4835745000746,273.4839556000661,273.4839556000661,273.4839556000661,,274.4685060000047,None,0,希腊,拉丁,None,None,0,0,[],[],行第,0.083,0.083,22,AB,f, j,277.1871518000262,727138,001,2024-12-19_19h08.17.689,AB,2024.1.5,None,2024-12-19 19h08.28.268156 +0800,
雪茄,烟斗, j,0:06,0:06,0:07,一一,f,巴糖,0,23,23,306,,,,,0,1,1,2,,,,,277.2527334999759,,,,,,,,,,,277.24211029999424,277.2527334999759,,277.3202261000406,,,,,,,,,,,,,,,,,,,,,,,,,,,,,,,,,,,,,,,,,,,,,,,,,f, j,,727138,001,2024-12-19_19h08.17.689,AB,2024.1.5,None,2024-12-19 19h08.28.268156 +0800,
雪茄,烟斗, j,0:06,0:06,0:07,一一,f,小借,0,23,23,306,,,,,0,2,2,3,,,,,277.3345502000302,,,,,,,,,,,277.3204571000533,277.3345502000302,,277.40328880003653,,,,,,,,,,,,,,,,,,,,,,,,,,,,,,,,,,,,,,,,,,,,,,,,,f, j,,727138,001,2024-12-19_19h08.17.689,AB,2024.1.5,None,2024-12-19 19h08.28.268156 +0800,
雪茄,烟斗, j,0:06,0:06,0:07,一一,f,员尾,0,23,23,306,,,,,0,3,3,1,,,,,277.4181343000382,,,,,,,,,,,277.4036016999744,277.4181343000382,,277.48646719998214,,,,,,,,,,,,,,,,,,,,,,,,,,,,,,,,,,,,,,,,,,,,,,,,,f, j,,727138,001,2024-12-19_19h08.17.689,AB,2024.1.5,None,2024-12-19 19h08.28.268156 +0800,
雪茄,烟斗, j,0:06,0:06,0:07,一一,f,行第,0,23,23,306,,,,,0,4,4,0,,,,,277.50114730000496,,,,,,,,,,,277.4866740000434,277.50114730000496,,277.5735324000707,,,,,,,,,,,,,,,,,,,,,,,,,,,,,,,,,,,,,,,,,,,,,,,,,f, j,,727138,001,2024-12-19_19h08.17.689,AB,2024.1.5,None,2024-12-19 19h08.28.268156 +0800,
雪茄,烟斗, j,0:06,0:06,0:07,一一,f,巴糖,0,23,23,306,,,,,,,,,0,0,0,2,277.8176196999848,,,,,,,,,,,277.8107580000069,277.8176196999848,277.90066220005974,277.8883337000152,,,,277.5736503000371,277.60223399999086,277.65168850007467,277.68435640004463,277.73460700002033,277.73460700002033,277.8176196999848,277.8039082000032,,,,,,,,,,,,,,,,,,,,,,,,,,,,,,,,,,,,,,f, j,,727138,001,2024-12-19_19h08.17.689,AB,2024.1.5,None,2024-12-19 19h08.28.268156 +0800,
雪茄,烟斗, j,0:06,0:06,0:07,一一,f,出亡,0,23,23,306,,,,,,,,,0,1,1,4,277.90066220005974,,,,,,,,,,,277.8886735000415,277.90066220005974,277.9836819000775,277.9695215000538,,,,,,,,,,,,,,,,,,,,,,,,,,,,,,,,,,,,,,,,,,,,,,,,,f, j,,727138,001,2024-12-19_19h08.17.689,AB,2024.1.5,None,2024-12-19 19h08.28.268156 +0800,
雪茄,烟斗, j,0:06,0:06,0:07,一一,f,小借,0,23,23,306,,,,,,,,,0,2,2,3,277.9836819000775,,,,,,,,,,,277.9696988000069,277.9836819000775,278.0670740000205,278.05242900003213,,,,,,,,,,,,,,,,,,,,,,,,,,,,,,,,,,,,,,,,,,,,,,,,,f, j,,727138,001,2024-12-19_19h08.17.689,AB,2024.1.5,None,2024-12-19 19h08.28.268156 +0800,
雪茄,烟斗, j,0:06,0:06,0:07,一一,f,员尾,0,23,23,306,,,,,,,,,0,3,3,1,278.0670740000205,,,,,,,,,,,278.05267340003047,278.0670740000205,278.1504929000512,278.13766710006166,,,,,,,,,,,,,,,,,,,,,,,,,,,,,,,,,,,,,,,,,,,,,,,,,f, j,,727138,001,2024-12-19_19h08.17.689,AB,2024.1.5,None,2024-12-19 19h08.28.268156 +0800,
雪茄,烟斗, j,0:06,0:06,0:07,一一,f,行第,0,23,23,306,,,,,,,,,0,4,4,0,278.1504929000512,,,,,,,,,,,278.13787440001033,278.1504929000512,278.2345862999791,278.2188965000678,,,,,,,,,,,,,,,,,,,,,,,,,,,,,,,,,,,,,,,,,,,,,,,,,f, j,,727138,001,2024-12-19_19h08.17.689,AB,2024.1.5,None,2024-12-19 19h08.28.268156 +0800,
毛巾,抹布, j,0:09,0:06,0:12,八八,j,员尾,0,24,24,269,,,,,0,0,0,1,,,,,289.1666236000601,,,,,286.24032770004123,286.27110989997163,287.233364899992,287.2835441000061,288.2498326000059,288.2221504000481,289.15968450007495,289.1666236000601,289.2495591000188,289.2383839000249,288.988155500032,289.08336280006915,289.1524120999966,,,,,,,,,278.21896279999055,278.2345862999791,279.24983450002037,279.2338555000024,279.2338555000024,281.2329406000208,281.2329406000208,281.2329406000208,,282.2437792000128,None,0,282.2443147000158,282.2688796999864,283.3020856999792,283.2698271999834,283.2698271999834,285.2872647000477,285.2549114000285,285.2872647000477,,286.23948129999917,None,0,雪茄,烟斗,None,None,0,0,[],[],行第,0.083,0.083,23,AB,j, j,289.1666236000601,727138,001,2024-12-19_19h08.17.689,AB,2024.1.5,None,2024-12-19 19h08.28.268156 +0800,
毛巾,抹布, j,0:09,0:06,0:12,八八,j,小借,0,24,24,269,,,,,0,1,1,3,,,,,289.2495591000188,,,,,,,,,,,289.2389585999772,289.2495591000188,289.33270430006087,289.32151210005395,,,,,,,,,,,,,,,,,,,,,,,,,,,,,,,,,,,,,,,,,,,,,,,,,j, j,,727138,001,2024-12-19_19h08.17.689,AB,2024.1.5,None,2024-12-19 19h08.28.268156 +0800,
毛巾,抹布, j,0:09,0:06,0:12,八八,j,巴糖,0,24,24,269,,,,,0,2,2,2,,,,,289.33270430006087,,,,,,,,,,,289.3218784000492,289.33270430006087,289.41607889998704,289.40207870001905,,,,,,,,,,,,,,,,,,,,,,,,,,,,,,,,,,,,,,,,,,,,,,,,,j, j,,727138,001,2024-12-19_19h08.17.689,AB,2024.1.5,None,2024-12-19 19h08.28.268156 +0800,
毛巾,抹布, j,0:09,0:06,0:12,八八,j,出亡,0,24,24,269,,,,,0,3,3,4,,,,,289.41607889998704,,,,,,,,,,,289.4022970000515,289.41607889998704,289.49983970005997,289.48920920002274,,,,,,,,,,,,,,,,,,,,,,,,,,,,,,,,,,,,,,,,,,,,,,,,,j, j,,727138,001,2024-12-19_19h08.17.689,AB,2024.1.5,None,2024-12-19 19h08.28.268156 +0800,
毛巾,抹布, j,0:09,0:06,0:12,八八,j,行第,0,24,24,269,,,,,0,4,4,0,,,,,289.49983970005997,,,,,,,,,,,289.4895906000165,289.49983970005997,289.58302850008477,289.57127429998945,,,,,,,,,,,,,,,,,,,,,,,,,,,,,,,,,,,,,,,,,,,,,,,,,j, j,,727138,001,2024-12-19_19h08.17.689,AB,2024.1.5,None,2024-12-19 19h08.28.268156 +0800,
毛巾,抹布, j,0:09,0:06,0:12,八八,j,小借,0,24,24,269,,,,,,,,,0,0,0,3,289.8332848000573,,,,,,,,,,,289.82730240002275,289.8332848000573,289.91624110005796,289.9036698000273,,,,289.57138189999387,289.58302850008477,289.66641449998133,289.66641449998133,289.7498442999786,289.7498442999786,289.8332848000573,289.8188256000867,,,,,,,,,,,,,,,,,,,,,,,,,,,,,,,,,,,,,,j, j,,727138,001,2024-12-19_19h08.17.689,AB,2024.1.5,None,2024-12-19 19h08.28.268156 +0800,
毛巾,抹布, j,0:09,0:06,0:12,八八,j,员尾,0,24,24,269,,,,,,,,,0,1,1,1,289.91624110005796,,,,,,,,,,,289.90401840000413,289.91624110005796,289.9999839999946,289.9876602999866,,,,,,,,,,,,,,,,,,,,,,,,,,,,,,,,,,,,,,,,,,,,,,,,,j, j,,727138,001,2024-12-19_19h08.17.689,AB,2024.1.5,None,2024-12-19 19h08.28.268156 +0800,
毛巾,抹布, j,0:09,0:06,0:12,八八,j,行第,0,24,24,269,,,,,,,,,0,2,2,0,289.9999839999946,,,,,,,,,,,289.98802450008225,289.9999839999946,290.0829875000054,290.06886140001006,,,,,,,,,,,,,,,,,,,,,,,,,,,,,,,,,,,,,,,,,,,,,,,,,j, j,,727138,001,2024-12-19_19h08.17.689,AB,2024.1.5,None,2024-12-19 19h08.28.268156 +0800,
毛巾,抹布, j,0:09,0:06,0:12,八八,j,巴糖,0,24,24,269,,,,,,,,,0,3,3,2,290.0829875000054,,,,,,,,,,,290.0692049000645,290.0829875000054,290.1666169000091,290.1522238000762,,,,,,,,,,,,,,,,,,,,,,,,,,,,,,,,,,,,,,,,,,,,,,,,,j, j,,727138,001,2024-12-19_19h08.17.689,AB,2024.1.5,None,2024-12-19 19h08.28.268156 +0800,
毛巾,抹布, j,0:09,0:06,0:12,八八,j,出亡,0,24,24,269,,,,,,,,,0,4,4,4,290.1666169000091,,,,,,,,,,,290.15244299999904,290.1666169000091,,290.237542900024,,,,,,,,,,,,,,,,,,,,,,,,,,,,,,,,,,,,,,,,,,,,,,,,,j, j,,727138,001,2024-12-19_19h08.17.689,AB,2024.1.5,None,2024-12-19 19h08.28.268156 +0800,
非常,很多, j,0:06,0.0,0:07,五五,f,出亡,0,25,25,155,,,,,0,0,0,4,,,,,300.9320924000349,,,,,298.23566640005447,298.2500093000708,299.2490807999857,299.2655197000131,300.26797719998285,300.23682320001535,300.9147549000336,300.94869520002976,300.7492196999956,301.01998049998656,300.73492389998864,300.83276510005817,300.9033892999869,,,,,,,,,290.23767310008407,290.24983920005616,291.2494445000775,291.2494445000775,291.2494445000775,293.25054989999626,293.25054989999626,293.25054989999626,294.2494743000716,294.2349429000169,None,0,294.23508999997284,294.2494743000716,295.24978359998204,295.24978359998204,295.24978359998204,297.24888109997846,297.24888109997846,297.24888109997846,298.2500093000708,298.23539430007804,None,0,毛巾,抹布,None,None,0,0,[],[],出亡,0.083,0.083,24,AB,f, j,300.9320924000349,727138,001,2024-12-19_19h08.17.689,AB,2024.1.5,None,2024-12-19 19h08.28.268156 +0800,
非常,很多, j,0:06,0.0,0:07,五五,f,小借,0,25,25,155,,,,,0,1,1,3,,,,,301.03330760006793,,,,,,,,,,,301.0202353000641,301.03330760006793,,301.1034318000311,,,,,,,,,,,,,,,,,,,,,,,,,,,,,,,,,,,,,,,,,,,,,,,,,f, j,,727138,001,2024-12-19_19h08.17.689,AB,2024.1.5,None,2024-12-19 19h08.28.268156 +0800,
非常,很多, j,0:06,0.0,0:07,五五,f,巴糖,0,25,25,155,,,,,0,2,2,2,,,,,301.1163552000653,,,,,,,,,,,301.1037439000793,301.1163552000653,,301.16834249999374,,,,,,,,,,,,,,,,,,,,,,,,,,,,,,,,,,,,,,,,,,,,,,,,,f, j,,727138,001,2024-12-19_19h08.17.689,AB,2024.1.5,None,2024-12-19 19h08.28.268156 +0800,
非常,很多, j,0:06,0.0,0:07,五五,f,员尾,0,25,25,155,,,,,0,3,3,1,,,,,301.1837380999932,,,,,,,,,,,301.1685546999797,301.1837380999932,,301.25444290007,,,,,,,,,,,,,,,,,,,,,,,,,,,,,,,,,,,,,,,,,,,,,,,,,f, j,,727138,001,2024-12-19_19h08.17.689,AB,2024.1.5,None,2024-12-19 19h08.28.268156 +0800,
非常,很多, j,0:06,0.0,0:07,五五,f,行第,0,25,25,155,,,,,0,4,4,0,,,,,301.26686029997654,,,,,,,,,,,301.25475040008314,301.26686029997654,,301.3364529000828,,,,,,,,,,,,,,,,,,,,,,,,,,,,,,,,,,,,,,,,,,,,,,,,,f, j,,727138,001,2024-12-19_19h08.17.689,AB,2024.1.5,None,2024-12-19 19h08.28.268156 +0800,
非常,很多, j,0:06,0.0,0:07,五五,f,巴糖,0,25,25,155,,,,,,,,,0,0,0,2,301.5837030999828,,,,,,,,,,,301.57639070006553,301.5837030999828,301.66717380005866,301.6523922000779,,,,301.3365225000307,301.3502370000351,301.4171874000458,301.4338044000324,301.5007516000187,301.5007516000187,301.5837030999828,301.5696717000101,,,,,,,,,,,,,,,,,,,,,,,,,,,,,,,,,,,,,,f, j,,727138,001,2024-12-19_19h08.17.689,AB,2024.1.5,None,2024-12-19 19h08.28.268156 +0800,
非常,很多, j,0:06,0.0,0:07,五五,f,出亡,0,25,25,155,,,,,,,,,0,1,1,4,301.66717380005866,,,,,,,,,,,301.652601400041,301.66717380005866,301.7509487000061,301.7366654999787,,,,,,,,,,,,,,,,,,,,,,,,,,,,,,,,,,,,,,,,,,,,,,,,,f, j,,727138,001,2024-12-19_19h08.17.689,AB,2024.1.5,None,2024-12-19 19h08.28.268156 +0800,
非常,很多, j,0:06,0.0,0:07,五五,f,员尾,0,25,25,155,,,,,,,,,0,2,2,1,301.7509487000061,,,,,,,,,,,301.7368867000332,301.7509487000061,,301.83363630005624,,,,,,,,,,,,,,,,,,,,,,,,,,,,,,,,,,,,,,,,,,,,,,,,,f, j,,727138,001,2024-12-19_19h08.17.689,AB,2024.1.5,None,2024-12-19 19h08.28.268156 +0800,
非常,很多, j,0:06,0.0,0:07,五五,f,行第,0,25,25,155,,,,,,,,,0,3,3,0,301.84885609999765,,,,,,,,,,,301.833810799988,301.84885609999765,,301.9207897000015,,,,,,,,,,,,,,,,,,,,,,,,,,,,,,,,,,,,,,,,,,,,,,,,,f, j,,727138,001,2024-12-19_19h08.17.689,AB,2024.1.5,None,2024-12-19 19h08.28.268156 +0800,
非常,很多, j,0:06,0.0,0:07,五五,f,小借,0,25,25,155,,,,,,,,,0,4,4,3,301.93311270000413,,,,,,,,,,,301.9210831000237,301.93311270000413,,302.0030484000454,,,,,,,,,,,,,,,,,,,,,,,,,,,,,,,,,,,,,,,,,,,,,,,,,f, j,,727138,001,2024-12-19_19h08.17.689,AB,2024.1.5,None,2024-12-19 19h08.28.268156 +0800,
狭窄,宽广, j,0:06,0.0,0:09,九九,j,行第,0,26,26,325,,,,,0,0,0,0,,,,,312.69863810006063,,,,,309.9846764000831,309.99845170008484,311.0001370999962,311.0001370999962,,312.00259160005953,312.6866853000829,312.69863810006063,,312.7698960000416,312.50351650000084,312.598531799973,312.67079990007915,,,,,,,,,302.0031495000003,302.015525600058,303.0162724000402,302.99935639998876,302.99935639998876,304.999259000062,304.999259000062,304.999259000062,305.9991401999723,305.98478679999243,None,0,305.9849527999759,305.9991401999723,306.9990417000372,306.9990417000372,306.9990417000372,308.99890960007906,308.99890960007906,308.99890960007906,309.99845170008484,309.98441530007403,None,0,非常,很多,None,None,0,0,[],[],小借,0.083,0.083,25,AB,j, j,312.69863810006063,727138,001,2024-12-19_19h08.17.689,AB,2024.1.5,None,2024-12-19 19h08.28.268156 +0800,
狭窄,宽广, j,0:06,0.0,0:09,九九,j,出亡,0,26,26,325,,,,,0,1,1,4,,,,,312.7824668000685,,,,,,,,,,,312.7702563999919,312.7824668000685,,312.8539283000864,,,,,,,,,,,,,,,,,,,,,,,,,,,,,,,,,,,,,,,,,,,,,,,,,j, j,,727138,001,2024-12-19_19h08.17.689,AB,2024.1.5,None,2024-12-19 19h08.28.268156 +0800,
狭窄,宽广, j,0:06,0.0,0:09,九九,j,小借,0,26,26,325,,,,,0,2,2,3,,,,,312.86509039998055,,,,,,,,,,,312.85430700005963,312.86509039998055,,312.93598629999906,,,,,,,,,,,,,,,,,,,,,,,,,,,,,,,,,,,,,,,,,,,,,,,,,j, j,,727138,001,2024-12-19_19h08.17.689,AB,2024.1.5,None,2024-12-19 19h08.28.268156 +0800,
狭窄,宽广, j,0:06,0.0,0:09,九九,j,员尾,0,26,26,325,,,,,0,3,3,1,,,,,312.94849830004387,,,,,,,,,,,312.9363570000278,312.94849830004387,,313.0195489000762,,,,,,,,,,,,,,,,,,,,,,,,,,,,,,,,,,,,,,,,,,,,,,,,,j, j,,727138,001,2024-12-19_19h08.17.689,AB,2024.1.5,None,2024-12-19 19h08.28.268156 +0800,
狭窄,宽广, j,0:06,0.0,0:09,九九,j,巴糖,0,26,26,325,,,,,0,4,4,2,,,,,313.0321887000464,,,,,,,,,,,313.01992330001667,313.0321887000464,,313.1028642000165,,,,,,,,,,,,,,,,,,,,,,,,,,,,,,,,,,,,,,,,,,,,,,,,,j, j,,727138,001,2024-12-19_19h08.17.689,AB,2024.1.5,None,2024-12-19 19h08.28.268156 +0800,
狭窄,宽广, j,0:06,0.0,0:09,九九,j,小借,0,26,26,325,,,,,,,,,0,0,0,3,313.3656278999988,,,,,,,,,,,313.35906749998685,313.3656278999988,,313.4335232999874,,,,313.10302340006456,313.1149531999836,313.1817133000586,313.19839180004783,313.26698650000617,313.26698650000617,,313.35184600006323,,,,,,,,,,,,,,,,,,,,,,,,,,,,,,,,,,,,,,j, j,,727138,001,2024-12-19_19h08.17.689,AB,2024.1.5,None,2024-12-19 19h08.28.268156 +0800,
狭窄,宽广, j,0:06,0.0,0:09,九九,j,出亡,0,26,26,325,,,,,,,,,0,1,1,4,313.4488328000298,,,,,,,,,,,313.4337057999801,313.4488328000298,,313.5167323000496,,,,,,,,,,,,,,,,,,,,,,,,,,,,,,,,,,,,,,,,,,,,,,,,,j, j,,727138,001,2024-12-19_19h08.17.689,AB,2024.1.5,None,2024-12-19 19h08.28.268156 +0800,
狭窄,宽广, j,0:06,0.0,0:09,九九,j,巴糖,0,26,26,325,,,,,,,,,0,2,2,2,313.5314941999968,,,,,,,,,,,313.5169174000621,313.5314941999968,,313.5998086000327,,,,,,,,,,,,,,,,,,,,,,,,,,,,,,,,,,,,,,,,,,,,,,,,,j, j,,727138,001,2024-12-19_19h08.17.689,AB,2024.1.5,None,2024-12-19 19h08.28.268156 +0800,
狭窄,宽广, j,0:06,0.0,0:09,九九,j,行第,0,26,26,325,,,,,,,,,0,3,3,0,313.6153532000026,,,,,,,,,,,313.5999739000108,313.6153532000026,,313.684174300055,,,,,,,,,,,,,,,,,,,,,,,,,,,,,,,,,,,,,,,,,,,,,,,,,j, j,,727138,001,2024-12-19_19h08.17.689,AB,2024.1.5,None,2024-12-19 19h08.28.268156 +0800,
狭窄,宽广, j,0:06,0.0,0:09,九九,j,员尾,0,26,26,325,,,,,,,,,0,4,4,1,313.6994249999989,,,,,,,,,,,313.68433770001866,313.6994249999989,,313.76694540004246,,,,,,,,,,,,,,,,,,,,,,,,,,,,,,,,,,,,,,,,,,,,,,,,,j, j,,727138,001,2024-12-19_19h08.17.689,AB,2024.1.5,None,2024-12-19 19h08.28.268156 +0800,
