probe,sectag,relatedu,firstnum,dis1num,dis2num,bignum,oddeven,dislist,trials_4.thisRepN,trials_4.thisTrialN,trials_4.thisN,trials_4.thisIndex,trials.thisRepN,trials.thisTrialN,trials.thisN,trials.thisIndex,trials_2.thisRepN,trials_2.thisTrialN,trials_2.thisN,trials_2.thisIndex,trials_3.thisRepN,trials_3.thisTrialN,trials_3.thisN,trials_3.thisIndex,thisRow.t,notes,ins.started,text.started,text.stopped,ins.stopped,cue.started,cuesti.started,cueblank.started,cuesti.stopped,cueblank.stopped,cue.stopped,dis1.started,text_3.started,text_3.stopped,dis1.stopped,firsTar.started,text_5.started,text_5.stopped,firsTar.stopped,probe.started,text_FLK1.started,text_4.started,text_FLK1.stopped,text_4.stopped,text_FLK2.started,text_FLK2.stopped,probe.stopped,AskColor.started,text_6.started,text_6.stopped,text_7.started,key_resp.started,AskColor.stopped,key_resp.keys,key_resp.corr,key_resp.rt,key_resp.duration,AskRelated.started,text_2.started,text_11.started,key_resp_2.started,text_2.stopped,text_11.stopped,text_10.started,key_resp_2.stopped,text_10.stopped,AskRelated.stopped,key_resp_2.keys,key_resp_2.corr,T1_stimulus,T2_stimulus,T1_response,T2_response,T1_accuracy,T2_accuracy,T1_RT,T2_RT,T2_accuracy_given_T1_correct,distractors,ISI,stimulus_duration,trial_number,trial_type,oddeven,relatedu,key_resp_2.rt,key_resp_2.duration,participant,session,date,expName,psychopyVersion,frameRate,expStart,
,,,,,,,,,,,,,,,,,,,,,,,,,,,0.002409299951978028,0.005599699914455414,1.0224010999081656,1.0005188999930397,,,,,,,,,,,,,,,,,,,,,,,,,,,,,,,,,,,,,,,,,,,,,,,,,,,,,,,,,,,,,,,772013,001,2024-12-21_09h29.00.856,AB,2024.1.5,None,2024-12-21 09h29.46.343574 +0800,
手部,脚部, f,0:09,0:02,0:12,二二,f,姓败,0,0,0,0,,,,,0,0,0,2,,,,,3.9330028999829665,,,,,,1.0167109000030905,1.0224010999081656,1.9995673999655992,2.032856599893421,2.999598199967295,2.983115099952556,3.921405099914409,3.9330028999829665,4.016338299959898,4.000265399925411,3.733293099910952,3.849639599910006,3.9330028999829665,3.9164189998991787,,,,,,,,,,,,,,,,,,,,,,,,,,,,,,,,,,,,,,,,,,,,,f, f,,,772013,001,2024-12-21_09h29.00.856,AB,2024.1.5,None,2024-12-21 09h29.46.343574 +0800,
手部,脚部, f,0:09,0:02,0:12,二二,f,蜜缓,0,0,0,0,,,,,0,1,1,4,,,,,4.016338299959898,,,,,,,,,,,,4.0004374999552965,4.016338299959898,4.099454799899831,4.082716599921696,,,,,,,,,,,,,,,,,,,,,,,,,,,,,,,,,,,,,,,,,,,,,,,,,f, f,,,772013,001,2024-12-21_09h29.00.856,AB,2024.1.5,None,2024-12-21 09h29.46.343574 +0800,
手部,脚部, f,0:09,0:02,0:12,二二,f,动加,0,0,0,0,,,,,0,2,2,1,,,,,4.099454799899831,,,,,,,,,,,,4.082886899937876,4.099454799899831,4.182431499939412,4.166420399909839,,,,,,,,,,,,,,,,,,,,,,,,,,,,,,,,,,,,,,,,,,,,,,,,,f, f,,,772013,001,2024-12-21_09h29.00.856,AB,2024.1.5,None,2024-12-21 09h29.46.343574 +0800,
手部,脚部, f,0:09,0:02,0:12,二二,f,痒动,0,0,0,0,,,,,0,3,3,0,,,,,4.182431499939412,,,,,,,,,,,,4.166589199914597,4.182431499939412,4.266187299974263,4.2498728999635205,,,,,,,,,,,,,,,,,,,,,,,,,,,,,,,,,,,,,,,,,,,,,,,,,f, f,,,772013,001,2024-12-21_09h29.00.856,AB,2024.1.5,None,2024-12-21 09h29.46.343574 +0800,
手部,脚部, f,0:09,0:02,0:12,二二,f,头酒,0,0,0,0,,,,,0,4,4,3,,,,,4.266187299974263,,,,,,,,,,,,4.250047199893743,4.266187299974263,4.349374599987641,4.333179699955508,,,,,,,,,,,,,,,,,,,,,,,,,,,,,,,,,,,,,,,,,,,,,,,,,f, f,,,772013,001,2024-12-21_09h29.00.856,AB,2024.1.5,None,2024-12-21 09h29.46.343574 +0800,
手部,脚部, f,0:09,0:02,0:12,二二,f,蜜缓,0,0,0,0,,,,,,,,,0,0,0,4,4.599619699991308,,,,,,,,,,,,4.587847099988721,4.599619699991308,4.682922799955122,4.666464299894869,,,,,4.333232399891131,4.349374599987641,4.432858199928887,4.432858199928887,4.515787399956025,4.515787399956025,4.599619699991308,4.583082699915394,,,,,,,,,,,,,,,,,,,,,,,,,,,,,,,,,,,,,f, f,,,772013,001,2024-12-21_09h29.00.856,AB,2024.1.5,None,2024-12-21 09h29.46.343574 +0800,
手部,脚部, f,0:09,0:02,0:12,二二,f,痒动,0,0,0,0,,,,,,,,,0,1,1,0,4.682922799955122,,,,,,,,,,,,4.666650499915704,4.682922799955122,4.765948099899106,4.759743299917318,,,,,,,,,,,,,,,,,,,,,,,,,,,,,,,,,,,,,,,,,,,,,,,,,f, f,,,772013,001,2024-12-21_09h29.00.856,AB,2024.1.5,None,2024-12-21 09h29.46.343574 +0800,
手部,脚部, f,0:09,0:02,0:12,二二,f,头酒,0,0,0,0,,,,,,,,,0,2,2,3,4.765948099899106,,,,,,,,,,,,4.759929099935107,4.765948099899106,4.8497959999367595,4.833176099928096,,,,,,,,,,,,,,,,,,,,,,,,,,,,,,,,,,,,,,,,,,,,,,,,,f, f,,,772013,001,2024-12-21_09h29.00.856,AB,2024.1.5,None,2024-12-21 09h29.46.343574 +0800,
手部,脚部, f,0:09,0:02,0:12,二二,f,姓败,0,0,0,0,,,,,,,,,0,3,3,2,4.8497959999367595,,,,,,,,,,,,4.833360099932179,4.8497959999367595,4.932834799983539,4.916503599961288,,,,,,,,,,,,,,,,,,,,,,,,,,,,,,,,,,,,,,,,,,,,,,,,,f, f,,,772013,001,2024-12-21_09h29.00.856,AB,2024.1.5,None,2024-12-21 09h29.46.343574 +0800,
手部,脚部, f,0:09,0:02,0:12,二二,f,动加,0,0,0,0,,,,,,,,,0,4,4,1,4.932834799983539,,,,,,,,,,,,4.916698999935761,4.932834799983539,5.015801399946213,4.99982619995717,,,,,,,,,,,,,,,,,,,,,,,,,,,,,,,,,,,,,,,,,,,,,,,,,f, f,,,772013,001,2024-12-21_09h29.00.856,AB,2024.1.5,None,2024-12-21 09h29.46.343574 +0800,
窗帘,帘幔, f,0:06,0:06,0:06,三三,f,痒动,0,1,1,2,,,,,0,0,0,0,,,,,13.949038599967025,,,,,,11.249855799949728,11.265760899987072,12.265684799989685,12.265684799989685,13.265783699927852,13.249639299931005,13.937471099896356,13.949038599967025,14.032634299946949,14.016581499949098,13.750016299891286,13.865812499891035,13.949038599967025,13.932792599895038,,,,,,,,,4.999877299997024,5.015801399946213,6.015918599907309,6.015918599907309,6.015918599907309,7.252358699915931,f,1,1.2288842999842018,None,7.252637499943376,7.266089499928057,8.251739699975587,8.251739699975587,8.26857169996947,10.265662799938582,10.265662799938582,10.265662799938582,11.265760899987072,11.249552799970843,None,0,手部,脚部,f,None,1,0,1.2288842999842018,[],0,动加,0.083,0.083,0,AB,f, f,,,772013,001,2024-12-21_09h29.00.856,AB,2024.1.5,None,2024-12-21 09h29.46.343574 +0800,
窗帘,帘幔, f,0:06,0:06,0:06,三三,f,蜜缓,0,1,1,2,,,,,0,1,1,4,,,,,14.032634299946949,,,,,,,,,,,,14.016752099967562,14.032634299946949,14.11574749997817,14.099464599974453,,,,,,,,,,,,,,,,,,,,,,,,,,,,,,,,,,,,,,,,,,,,,,,,,f, f,,,772013,001,2024-12-21_09h29.00.856,AB,2024.1.5,None,2024-12-21 09h29.46.343574 +0800,
窗帘,帘幔, f,0:06,0:06,0:06,三三,f,头酒,0,1,1,2,,,,,0,2,2,3,,,,,14.11574749997817,,,,,,,,,,,,14.099640999920666,14.11574749997817,14.19906239991542,14.182793699903414,,,,,,,,,,,,,,,,,,,,,,,,,,,,,,,,,,,,,,,,,,,,,,,,,f, f,,,772013,001,2024-12-21_09h29.00.856,AB,2024.1.5,None,2024-12-21 09h29.46.343574 +0800,
窗帘,帘幔, f,0:06,0:06,0:06,三三,f,姓败,0,1,1,2,,,,,0,3,3,2,,,,,14.19906239991542,,,,,,,,,,,,14.182974399998784,14.19906239991542,,14.266009299899451,,,,,,,,,,,,,,,,,,,,,,,,,,,,,,,,,,,,,,,,,,,,,,,,,f, f,,,772013,001,2024-12-21_09h29.00.856,AB,2024.1.5,None,2024-12-21 09h29.46.343574 +0800,
窗帘,帘幔, f,0:06,0:06,0:06,三三,f,动加,0,1,1,2,,,,,0,4,4,1,,,,,14.28284239990171,,,,,,,,,,,,14.266274099936709,14.28284239990171,,14.349359799991362,,,,,,,,,,,,,,,,,,,,,,,,,,,,,,,,,,,,,,,,,,,,,,,,,f, f,,,772013,001,2024-12-21_09h29.00.856,AB,2024.1.5,None,2024-12-21 09h29.46.343574 +0800,
窗帘,帘幔, f,0:06,0:06,0:06,三三,f,痒动,0,1,1,2,,,,,,,,,0,0,0,0,14.599211999913678,,,,,,,,,,,,14.587562799919397,14.599211999913678,14.682500900002196,14.666120799956843,,,,,14.349418899975717,14.36599659989588,14.432128299959004,14.449200099916197,14.515575699973851,14.515575699973851,14.599211999913678,14.58268299989868,,,,,,,,,,,,,,,,,,,,,,,,,,,,,,,,,,,,,f, f,,,772013,001,2024-12-21_09h29.00.856,AB,2024.1.5,None,2024-12-21 09h29.46.343574 +0800,
窗帘,帘幔, f,0:06,0:06,0:06,三三,f,头酒,0,1,1,2,,,,,,,,,0,1,1,3,14.682500900002196,,,,,,,,,,,,14.66629500000272,14.682500900002196,14.765923199942335,14.749960499932058,,,,,,,,,,,,,,,,,,,,,,,,,,,,,,,,,,,,,,,,,,,,,,,,,f, f,,,772013,001,2024-12-21_09h29.00.856,AB,2024.1.5,None,2024-12-21 09h29.46.343574 +0800,
窗帘,帘幔, f,0:06,0:06,0:06,三三,f,姓败,0,1,1,2,,,,,,,,,0,2,2,2,14.765923199942335,,,,,,,,,,,,14.750181899988092,14.765923199942335,14.8491526999278,14.832803700002842,,,,,,,,,,,,,,,,,,,,,,,,,,,,,,,,,,,,,,,,,,,,,,,,,f, f,,,772013,001,2024-12-21_09h29.00.856,AB,2024.1.5,None,2024-12-21 09h29.46.343574 +0800,
窗帘,帘幔, f,0:06,0:06,0:06,三三,f,蜜缓,0,1,1,2,,,,,,,,,0,3,3,4,14.8491526999278,,,,,,,,,,,,14.833009599940851,14.8491526999278,14.932266999967396,14.915772999986075,,,,,,,,,,,,,,,,,,,,,,,,,,,,,,,,,,,,,,,,,,,,,,,,,f, f,,,772013,001,2024-12-21_09h29.00.856,AB,2024.1.5,None,2024-12-21 09h29.46.343574 +0800,
窗帘,帘幔, f,0:06,0:06,0:06,三三,f,动加,0,1,1,2,,,,,,,,,0,4,4,1,14.932266999967396,,,,,,,,,,,,14.915947699919343,14.932266999967396,15.015490699908696,14.99925059999805,,,,,,,,,,,,,,,,,,,,,,,,,,,,,,,,,,,,,,,,,,,,,,,,,f, f,,,772013,001,2024-12-21_09h29.00.856,AB,2024.1.5,None,2024-12-21 09h29.46.343574 +0800,
商店,店铺, f,0:06,0:02,0:10,三三,j,姓败,0,2,2,1,,,,,0,0,0,2,,,,,21.182430999935605,,,,,,18.50026459991932,18.515542699955404,19.5151990999002,19.5151990999002,20.515517399995588,20.49899909994565,21.17017939989455,21.182430999935605,21.265577299986035,21.248809499898925,20.999285799916834,21.098908499930985,21.182430999935605,21.165588499978185,,,,,,,,,14.99930389993824,15.015490699908696,16.01543439994566,16.01543439994566,16.01543439994566,16.13300559995696,f,1,0.10751739994157106,None,16.1332121999003,16.14904409996234,17.148984299972653,17.148984299972653,17.148984299972653,,,,,18.499936899985187,f,0,窗帘,帘幔,f,f,1,0,0.10751739994157106,1.3470094000222161,0,动加,0.083,0.083,1,AB,j, f,1.3470094000222161,None,772013,001,2024-12-21_09h29.00.856,AB,2024.1.5,None,2024-12-21 09h29.46.343574 +0800,
商店,店铺, f,0:06,0:02,0:10,三三,j,蜜缓,0,2,2,1,,,,,0,1,1,4,,,,,21.265577299986035,,,,,,,,,,,,21.248975299997255,21.265577299986035,21.348896899959072,21.332476899959147,,,,,,,,,,,,,,,,,,,,,,,,,,,,,,,,,,,,,,,,,,,,,,,,,j, f,,,772013,001,2024-12-21_09h29.00.856,AB,2024.1.5,None,2024-12-21 09h29.46.343574 +0800,
商店,店铺, f,0:06,0:02,0:10,三三,j,动加,0,2,2,1,,,,,0,2,2,1,,,,,21.348896899959072,,,,,,,,,,,,21.33264609996695,21.348896899959072,21.4319846999133,21.415618199971505,,,,,,,,,,,,,,,,,,,,,,,,,,,,,,,,,,,,,,,,,,,,,,,,,j, f,,,772013,001,2024-12-21_09h29.00.856,AB,2024.1.5,None,2024-12-21 09h29.46.343574 +0800,
商店,店铺, f,0:06,0:02,0:10,三三,j,头酒,0,2,2,1,,,,,0,3,3,3,,,,,21.4319846999133,,,,,,,,,,,,21.41579100000672,21.4319846999133,21.51522159995511,21.499014499946497,,,,,,,,,,,,,,,,,,,,,,,,,,,,,,,,,,,,,,,,,,,,,,,,,j, f,,,772013,001,2024-12-21_09h29.00.856,AB,2024.1.5,None,2024-12-21 09h29.46.343574 +0800,
商店,店铺, f,0:06,0:02,0:10,三三,j,痒动,0,2,2,1,,,,,0,4,4,0,,,,,21.51522159995511,,,,,,,,,,,,21.499236300005578,21.51522159995511,21.598559799953364,21.582415299955755,,,,,,,,,,,,,,,,,,,,,,,,,,,,,,,,,,,,,,,,,,,,,,,,,j, f,,,772013,001,2024-12-21_09h29.00.856,AB,2024.1.5,None,2024-12-21 09h29.46.343574 +0800,
商店,店铺, f,0:06,0:02,0:10,三三,j,姓败,0,2,2,1,,,,,,,,,0,0,0,2,21.848938899929635,,,,,,,,,,,,21.837428799946792,21.848938899929635,21.932007399969734,21.915829699952155,,,,,21.58251819992438,21.598559799953364,21.682072399999015,21.682072399999015,21.765468999976292,21.765468999976292,21.848938899929635,21.832688099937513,,,,,,,,,,,,,,,,,,,,,,,,,,,,,,,,,,,,,j, f,,,772013,001,2024-12-21_09h29.00.856,AB,2024.1.5,None,2024-12-21 09h29.46.343574 +0800,
商店,店铺, f,0:06,0:02,0:10,三三,j,痒动,0,2,2,1,,,,,,,,,0,1,1,0,21.932007399969734,,,,,,,,,,,,21.916007899912074,21.932007399969734,22.015327099943534,21.99878559994977,,,,,,,,,,,,,,,,,,,,,,,,,,,,,,,,,,,,,,,,,,,,,,,,,j, f,,,772013,001,2024-12-21_09h29.00.856,AB,2024.1.5,None,2024-12-21 09h29.46.343574 +0800,
商店,店铺, f,0:06,0:02,0:10,三三,j,动加,0,2,2,1,,,,,,,,,0,2,2,1,22.015327099943534,,,,,,,,,,,,21.998975199996494,22.015327099943534,22.098778199986555,22.082475999952294,,,,,,,,,,,,,,,,,,,,,,,,,,,,,,,,,,,,,,,,,,,,,,,,,j, f,,,772013,001,2024-12-21_09h29.00.856,AB,2024.1.5,None,2024-12-21 09h29.46.343574 +0800,
商店,店铺, f,0:06,0:02,0:10,三三,j,蜜缓,0,2,2,1,,,,,,,,,0,3,3,4,22.098778199986555,,,,,,,,,,,,22.08267309993971,22.098778199986555,22.181743699940853,22.165392499999143,,,,,,,,,,,,,,,,,,,,,,,,,,,,,,,,,,,,,,,,,,,,,,,,,j, f,,,772013,001,2024-12-21_09h29.00.856,AB,2024.1.5,None,2024-12-21 09h29.46.343574 +0800,
商店,店铺, f,0:06,0:02,0:10,三三,j,头酒,0,2,2,1,,,,,,,,,0,4,4,3,22.181743699940853,,,,,,,,,,,,22.165552699938416,22.181743699940853,22.2653219999047,22.24906349997036,,,,,,,,,,,,,,,,,,,,,,,,,,,,,,,,,,,,,,,,,,,,,,,,,j, f,,,772013,001,2024-12-21_09h29.00.856,AB,2024.1.5,None,2024-12-21 09h29.46.343574 +0800,
猫咪,小猫, f,0:09,0:02,0:03,五五,f,头酒,0,3,3,3,,,,,0,0,0,3,,,,,28.565287399920635,,,,,,25.632761899963953,25.648598699946888,26.631662799976766,26.64831099996809,27.631749899941497,27.615357199916616,28.553897199919447,28.565287399920635,28.648431099951267,28.63215499999933,28.381932099931873,28.481593699892983,28.565287399920635,28.5490425999742,,,,,,,,,22.249116799910553,22.2653219999047,23.265210999990813,23.265210999990813,23.265210999990813,23.899156999890693,f,0,0.6311095000710338,None,23.899337299983017,23.915378999896348,24.898584499955177,24.898584499955177,24.915295699960552,,,,,25.632516899961047,f,0,商店,店铺,f,f,0,0,0.6311095000710338,0.7223654999397695,,头酒,0.083,0.083,2,AB,f, f,0.7223654999397695,None,772013,001,2024-12-21_09h29.00.856,AB,2024.1.5,None,2024-12-21 09h29.46.343574 +0800,
猫咪,小猫, f,0:09,0:02,0:03,五五,f,蜜缓,0,3,3,3,,,,,0,1,1,4,,,,,28.648431099951267,,,,,,,,,,,,28.632337599992752,28.648431099951267,28.731817199965008,28.715417999890633,,,,,,,,,,,,,,,,,,,,,,,,,,,,,,,,,,,,,,,,,,,,,,,,,f, f,,,772013,001,2024-12-21_09h29.00.856,AB,2024.1.5,None,2024-12-21 09h29.46.343574 +0800,
猫咪,小猫, f,0:09,0:02,0:03,五五,f,动加,0,3,3,3,,,,,0,2,2,1,,,,,28.731817199965008,,,,,,,,,,,,28.715599399991333,28.731817199965008,28.81496619991958,28.798806999926455,,,,,,,,,,,,,,,,,,,,,,,,,,,,,,,,,,,,,,,,,,,,,,,,,f, f,,,772013,001,2024-12-21_09h29.00.856,AB,2024.1.5,None,2024-12-21 09h29.46.343574 +0800,
猫咪,小猫, f,0:09,0:02,0:03,五五,f,痒动,0,3,3,3,,,,,0,3,3,0,,,,,28.81496619991958,,,,,,,,,,,,28.798980099963956,28.81496619991958,28.898716099909507,28.882570099900477,,,,,,,,,,,,,,,,,,,,,,,,,,,,,,,,,,,,,,,,,,,,,,,,,f, f,,,772013,001,2024-12-21_09h29.00.856,AB,2024.1.5,None,2024-12-21 09h29.46.343574 +0800,
猫咪,小猫, f,0:09,0:02,0:03,五五,f,姓败,0,3,3,3,,,,,0,4,4,2,,,,,28.898716099909507,,,,,,,,,,,,28.882755699916743,28.898716099909507,28.98183289996814,28.965525199892,,,,,,,,,,,,,,,,,,,,,,,,,,,,,,,,,,,,,,,,,,,,,,,,,f, f,,,772013,001,2024-12-21_09h29.00.856,AB,2024.1.5,None,2024-12-21 09h29.46.343574 +0800,
猫咪,小猫, f,0:09,0:02,0:03,五五,f,蜜缓,0,3,3,3,,,,,,,,,0,0,0,4,29.23195449996274,,,,,,,,,,,,29.21975249995012,29.23195449996274,29.314890799927525,29.298706599976867,,,,,28.965582099976018,28.98183289996814,29.065009499900043,29.065009499900043,29.148527099983767,29.148527099983767,29.23195449996274,29.215029799961485,,,,,,,,,,,,,,,,,,,,,,,,,,,,,,,,,,,,,f, f,,,772013,001,2024-12-21_09h29.00.856,AB,2024.1.5,None,2024-12-21 09h29.46.343574 +0800,
猫咪,小猫, f,0:09,0:02,0:03,五五,f,痒动,0,3,3,3,,,,,,,,,0,1,1,0,29.314890799927525,,,,,,,,,,,,29.29888859996572,29.314890799927525,29.398575800005347,29.3821459999308,,,,,,,,,,,,,,,,,,,,,,,,,,,,,,,,,,,,,,,,,,,,,,,,,f, f,,,772013,001,2024-12-21_09h29.00.856,AB,2024.1.5,None,2024-12-21 09h29.46.343574 +0800,
猫咪,小猫, f,0:09,0:02,0:03,五五,f,姓败,0,3,3,3,,,,,,,,,0,2,2,2,29.398575800005347,,,,,,,,,,,,29.382337899995036,29.398575800005347,29.48157139995601,29.465470799943432,,,,,,,,,,,,,,,,,,,,,,,,,,,,,,,,,,,,,,,,,,,,,,,,,f, f,,,772013,001,2024-12-21_09h29.00.856,AB,2024.1.5,None,2024-12-21 09h29.46.343574 +0800,
猫咪,小猫, f,0:09,0:02,0:03,五五,f,动加,0,3,3,3,,,,,,,,,0,3,3,1,29.48157139995601,,,,,,,,,,,,29.46566449990496,29.48157139995601,29.565162499900907,29.54856059991289,,,,,,,,,,,,,,,,,,,,,,,,,,,,,,,,,,,,,,,,,,,,,,,,,f, f,,,772013,001,2024-12-21_09h29.00.856,AB,2024.1.5,None,2024-12-21 09h29.46.343574 +0800,
猫咪,小猫, f,0:09,0:02,0:03,五五,f,头酒,0,3,3,3,,,,,,,,,0,4,4,3,29.565162499900907,,,,,,,,,,,,29.54874379991088,29.565162499900907,29.648111899965443,29.631999299977906,,,,,,,,,,,,,,,,,,,,,,,,,,,,,,,,,,,,,,,,,,,,,,,,,f, f,,,772013,001,2024-12-21_09h29.00.856,AB,2024.1.5,None,2024-12-21 09h29.46.343574 +0800,
思考,沉思, f,0:09,0.0,0:07,二二,j,姓败,0,4,4,4,,,,,0,0,0,2,,,,,37.631559799890965,,,,,,34.69882149994373,34.71483549999539,35.698028299957514,35.714645199943334,36.69832419999875,36.68167149997316,37.619846799992956,37.631559799890965,37.71441779995803,37.69843409990426,37.43170849990565,37.548226499930024,37.631559799890965,37.615076899994165,,,,,,,,,29.63205819996074,29.648111899965443,30.648494599969126,30.648494599969126,30.648494599969126,32.565431399969384,f,1,1.9135609000222757,None,32.56562489992939,32.58151479996741,33.56483779998962,33.56483779998962,33.581516599981114,,,,,34.698577099945396,f,0,猫咪,小猫,f,f,1,0,1.9135609000222757,1.1288269000360742,0,头酒,0.083,0.083,3,AB,j, f,1.1288269000360742,None,772013,001,2024-12-21_09h29.00.856,AB,2024.1.5,None,2024-12-21 09h29.46.343574 +0800,
思考,沉思, f,0:09,0.0,0:07,二二,j,蜜缓,0,4,4,4,,,,,0,1,1,4,,,,,37.71441779995803,,,,,,,,,,,,37.698601199896075,37.71441779995803,37.79799779993482,37.78196269995533,,,,,,,,,,,,,,,,,,,,,,,,,,,,,,,,,,,,,,,,,,,,,,,,,j, f,,,772013,001,2024-12-21_09h29.00.856,AB,2024.1.5,None,2024-12-21 09h29.46.343574 +0800,
思考,沉思, f,0:09,0.0,0:07,二二,j,痒动,0,4,4,4,,,,,0,2,2,0,,,,,37.79799779993482,,,,,,,,,,,,37.78214369993657,37.79799779993482,37.881496599991806,37.865127399913035,,,,,,,,,,,,,,,,,,,,,,,,,,,,,,,,,,,,,,,,,,,,,,,,,j, f,,,772013,001,2024-12-21_09h29.00.856,AB,2024.1.5,None,2024-12-21 09h29.46.343574 +0800,
思考,沉思, f,0:09,0.0,0:07,二二,j,头酒,0,4,4,4,,,,,0,3,3,3,,,,,37.881496599991806,,,,,,,,,,,,37.86530869989656,37.881496599991806,37.96473399992101,37.94830159994308,,,,,,,,,,,,,,,,,,,,,,,,,,,,,,,,,,,,,,,,,,,,,,,,,j, f,,,772013,001,2024-12-21_09h29.00.856,AB,2024.1.5,None,2024-12-21 09h29.46.343574 +0800,
思考,沉思, f,0:09,0.0,0:07,二二,j,动加,0,4,4,4,,,,,0,4,4,1,,,,,37.96473399992101,,,,,,,,,,,,37.94848659995478,37.96473399992101,38.048075199942105,38.03191479993984,,,,,,,,,,,,,,,,,,,,,,,,,,,,,,,,,,,,,,,,,,,,,,,,,j, f,,,772013,001,2024-12-21_09h29.00.856,AB,2024.1.5,None,2024-12-21 09h29.46.343574 +0800,
思考,沉思, f,0:09,0.0,0:07,二二,j,痒动,0,4,4,4,,,,,,,,,0,0,0,0,38.29809749999549,,,,,,,,,,,,38.2865134999156,38.29809749999549,38.38135979999788,38.365193799952976,,,,,38.031987899914384,38.048075199942105,38.13114349998068,38.13114349998068,38.21476669993717,38.21476669993717,38.29809749999549,38.28173689998221,,,,,,,,,,,,,,,,,,,,,,,,,,,,,,,,,,,,,j, f,,,772013,001,2024-12-21_09h29.00.856,AB,2024.1.5,None,2024-12-21 09h29.46.343574 +0800,
思考,沉思, f,0:09,0.0,0:07,二二,j,姓败,0,4,4,4,,,,,,,,,0,1,1,2,38.38135979999788,,,,,,,,,,,,38.36538189998828,38.38135979999788,38.46460099995602,38.44832079997286,,,,,,,,,,,,,,,,,,,,,,,,,,,,,,,,,,,,,,,,,,,,,,,,,j, f,,,772013,001,2024-12-21_09h29.00.856,AB,2024.1.5,None,2024-12-21 09h29.46.343574 +0800,
思考,沉思, f,0:09,0.0,0:07,二二,j,动加,0,4,4,4,,,,,,,,,0,2,2,1,38.46460099995602,,,,,,,,,,,,38.448499899939634,38.46460099995602,38.54798489995301,38.53156949998811,,,,,,,,,,,,,,,,,,,,,,,,,,,,,,,,,,,,,,,,,,,,,,,,,j, f,,,772013,001,2024-12-21_09h29.00.856,AB,2024.1.5,None,2024-12-21 09h29.46.343574 +0800,
思考,沉思, f,0:09,0.0,0:07,二二,j,头酒,0,4,4,4,,,,,,,,,0,3,3,3,38.54798489995301,,,,,,,,,,,,38.53173759998754,38.54798489995301,38.63131969992537,38.61480679991655,,,,,,,,,,,,,,,,,,,,,,,,,,,,,,,,,,,,,,,,,,,,,,,,,j, f,,,772013,001,2024-12-21_09h29.00.856,AB,2024.1.5,None,2024-12-21 09h29.46.343574 +0800,
思考,沉思, f,0:09,0.0,0:07,二二,j,蜜缓,0,4,4,4,,,,,,,,,0,4,4,4,38.63131969992537,,,,,,,,,,,,38.614968099980615,38.63131969992537,38.71437339996919,38.698406699928455,,,,,,,,,,,,,,,,,,,,,,,,,,,,,,,,,,,,,,,,,,,,,,,,,j, f,,,772013,001,2024-12-21_09h29.00.856,AB,2024.1.5,None,2024-12-21 09h29.46.343574 +0800,
,, f,,,,,j,,,,,,,,,,,,,,,,,,,,,,,,,,,,,,,,,,,,,,,,,,,,,,38.69846799992956,38.71437339996919,39.714556099963374,39.714556099963374,39.714556099963374,41.464868199895136,f,0,1.7390504999784753,None,41.46505729993805,41.48108339996543,42.46463129995391,42.46463129995391,42.48101059999317,,,,,43.764999399892986,f,0,思考,沉思,f,f,0,0,1.7390504999784753,1.285283499979414,,蜜缓,0.083,0.083,4,AB,j, f,1.285283499979414,None,,,,,,,,
